Time,time,accelX,accelY,accelZ,gyroX,gyroY,gyroZ,magX,magY,magZ
1638389564.7578838,1638389564774147068,-0.3471580147743225,-0.05865800008177757,10.004135131835938,-0.02797899954020977,0.01785299926996231,0.0039969999343156815,-22.80000114440918,12.600000381469727,35.400001525878906
1638389564.7814178,1638389564797487079,-0.34356701374053955,-0.06224900111556053,10.000543594360352,-0.02851100079715252,0.018386000767350197,0.0037299999967217445,-22.80000114440918,12.600000381469727,35.400001525878906
1638389564.799345,1638389564815575925,-0.36032599210739136,-0.055066000670194626,9.946674346923828,-0.028245000168681145,0.018118999898433685,0.004263000097125769,-22.80000114440918,12.600000381469727,35.400001525878906
1638389564.8189957,1638389564835193690,-0.3543410003185272,-0.06583999842405319,10.008923530578613,-0.02797899954020977,0.018386000767350197,0.004263000097125769,-22.80000114440918,12.600000381469727,35.400001525878906
1638389564.8580015,1638389564874431563,-0.34476399421691895,-0.0730229988694191,10.022090911865234,-0.02877799980342388,0.018118999898433685,0.004263000097125769,-22.80000114440918,12.0,33.60000228881836
1638389564.861922,1638389564878375626,-0.34476399421691895,-0.0730229988694191,10.022090911865234,-0.02877799980342388,0.018118999898433685,0.004263000097125769,-22.80000114440918,12.0,33.60000228881836
1638389564.8790913,1638389564895440228,-0.3639169931411743,-0.08379700034856796,9.963433265686035,-0.02877799980342388,0.018651999533176422,0.0039969999343156815,-22.80000114440918,12.0,33.60000228881836
1638389564.8992422,1638389564915392828,-0.38666200637817383,-0.08140300214290619,9.962236404418945,-0.02851100079715252,0.018118999898433685,0.004263000097125769,-22.80000114440918,12.0,33.60000228881836
1638389564.9198294,1638389564935623493,-0.3567349910736084,-0.07781100273132324,9.946674346923828,-0.02877799980342388,0.017319999635219574,0.0037299999967217445,-22.80000114440918,12.0,33.60000228881836
1638389564.9576766,1638389564974183155,-0.35194599628448486,-0.06823399662971497,9.92273235321045,-0.02877799980342388,0.017587000504136086,0.004263000097125769,-24.299999237060547,12.899999618530273,35.10000228881836
1638389564.9619849,1638389564978415960,-0.3339900076389313,-0.0562639981508255,9.998148918151855,-0.029044000431895256,0.018651999533176422,0.0037299999967217445,-24.299999237060547,12.899999618530273,35.10000228881836
1638389564.984175,1638389564995392544,-0.3459610044956207,-0.052671998739242554,9.940689086914062,-0.02797899954020977,0.018118999898433685,0.0039969999343156815,-24.299999237060547,12.899999618530273,35.10000228881836
1638389564.999098,1638389565015418581,-0.3806770145893097,-0.08140300214290619,9.986178398132324,-0.02877799980342388,0.018651999533176422,0.0037299999967217445,-24.299999237060547,12.899999618530273,35.10000228881836
1638389565.019564,1638389565035630242,-0.2849090099334717,-0.08259999752044678,9.926323890686035,-0.02877799980342388,0.017587000504136086,0.0037299999967217445,-24.299999237060547,12.899999618530273,35.10000228881836
1638389565.0579965,1638389565074442876,-0.37588798999786377,-0.045490000396966934,10.019697189331055,-0.02797899954020977,0.018386000767350197,0.003464000066742301,-22.5,9.899999618530273,34.5
1638389565.0619965,1638389565078408241,-0.3962390124797821,-0.06703700125217438,10.007725715637207,-0.02851100079715252,0.018118999898433685,0.003464000066742301,-22.5,9.899999618530273,34.5
1638389565.079184,1638389565095493056,-0.32800400257110596,-0.08738800138235092,9.946674346923828,-0.029044000431895256,0.01705400086939335,0.004263000097125769,-22.5,9.899999618530273,34.5
1638389565.0993845,1638389565115431546,-0.35314300656318665,-0.06823399662971497,9.939491271972656,-0.02851100079715252,0.01918499916791916,0.004530000034719706,-22.5,9.899999618530273,34.5
1638389565.119478,1638389565135655602,-0.34476399421691895,-0.08259999752044678,9.947871208190918,-0.02851100079715252,0.018919000402092934,0.0037299999967217445,-22.5,9.899999618530273,34.5
1638389565.1451206,1638389565160936037,-0.37828201055526733,-0.061051998287439346,9.921534538269043,-0.02877799980342388,0.018118999898433685,0.0039969999343156815,-23.700000762939453,11.100000381469727,34.5
1638389565.159543,1638389565175893876,-0.3483549952507019,-0.05386900156736374,9.95505428314209,-0.02851100079715252,0.018651999533176422,0.004263000097125769,-23.700000762939453,11.100000381469727,34.5
1638389565.1789944,1638389565195274621,-0.34476399421691895,-0.08858499675989151,9.99216365814209,-0.027712000533938408,0.01785299926996231,0.003464000066742301,-23.700000762939453,11.100000381469727,34.5
1638389565.1990163,1638389565215302067,-0.36152300238609314,-0.07062900066375732,9.947871208190918,-0.02877799980342388,0.018919000402092934,0.0037299999967217445,-23.700000762939453,11.100000381469727,34.5
1638389565.2187319,1638389565235107801,-0.355538010597229,-0.06943199783563614,9.9694185256958,-0.029044000431895256,0.018651999533176422,0.004263000097125769,-23.700000762939453,11.100000381469727,34.5
1638389565.25746,1638389565273910851,-0.3315959870815277,-0.05027800053358078,9.988572120666504,-0.02877799980342388,0.018118999898433685,0.0037299999967217445,-23.100000381469727,12.300000190734863,33.900001525878906
1638389565.2617173,1638389565277796583,-0.3663119971752167,-0.09337399899959564,10.002937316894531,-0.029044000431895256,0.018386000767350197,0.004263000097125769,-23.100000381469727,12.300000190734863,33.900001525878906
1638389565.281845,1638389565297322585,-0.3399749994277954,-0.06703700125217438,9.917943954467773,-0.02851100079715252,0.017319999635219574,0.0037299999967217445,-23.100000381469727,12.300000190734863,33.900001525878906
1638389565.3005867,1638389565316868898,-0.3567349910736084,-0.09217599779367447,9.981389999389648,-0.02851100079715252,0.018386000767350197,0.003464000066742301,-23.100000381469727,12.300000190734863,33.900001525878906
1638389565.353241,1638389565369422059,-0.34356701374053955,-0.08858499675989151,9.943082809448242,-0.02931099943816662,0.01785299926996231,0.003464000066742301,-23.100000381469727,12.300000190734863,33.900001525878906
1638389565.357076,1638389565373464506,-0.3411720097064972,-0.10175299644470215,9.975404739379883,-0.02877799980342388,0.018118999898433685,0.0037299999967217445,-23.100000381469727,11.100000381469727,34.5
1638389565.3610895,1638389565377428985,-0.3507489860057831,-0.09097900241613388,10.008923530578613,-0.028245000168681145,0.01705400086939335,0.004530000034719706,-23.100000381469727,11.100000381469727,34.5
1638389565.3803704,1638389565396723743,-0.32800400257110596,-0.08499400317668915,9.945476531982422,-0.029044000431895256,0.01918499916791916,0.004263000097125769,-23.100000381469727,11.100000381469727,34.5
1638389565.4001412,1638389565416491509,-0.37708500027656555,-0.08858499675989151,9.998148918151855,-0.02877799980342388,0.018386000767350197,0.004263000097125769,-23.100000381469727,11.100000381469727,34.5
1638389565.4203696,1638389565436639629,-0.3495520055294037,-0.11013299971818924,9.99216365814209,-0.028245000168681145,0.018118999898433685,0.004263000097125769,-23.100000381469727,11.100000381469727,34.5
1638389565.4458659,1638389565461997353,-0.3315959870815277,-0.08140300214290619,9.950265884399414,-0.028245000168681145,0.018118999898433685,0.004263000097125769,-23.399999618530273,12.600000381469727,33.0
1638389565.4605968,1638389565476937641,-0.3902530074119568,-0.07422000169754028,9.976601600646973,-0.02877799980342388,0.018118999898433685,0.003464000066742301,-23.399999618530273,12.600000381469727,33.0
1638389565.4805179,1638389565496828685,-0.31962499022483826,-0.0969650000333786,9.970616340637207,-0.02851100079715252,0.018118999898433685,0.004263000097125769,-23.399999618530273,12.600000381469727,33.0
1638389565.5002246,1638389565516628533,-0.3232159912586212,-0.07661399990320206,10.004135131835938,-0.029044000431895256,0.017587000504136086,0.004263000097125769,-23.399999618530273,12.600000381469727,33.0
1638389565.5205657,1638389565536813892,-0.3711000084877014,-0.07661399990320206,9.996952056884766,-0.027712000533938408,0.017587000504136086,0.003464000066742301,-23.399999618530273,12.600000381469727,33.0
1638389565.5461864,1638389565562563846,-0.2992739975452423,-0.0897819995880127,9.95625114440918,-0.02851100079715252,0.017319999635219574,0.003464000066742301,-23.100000381469727,11.699999809265137,33.29999923706055
1638389565.5612476,1638389565577576267,-0.3651140034198761,-0.09576799720525742,9.995755195617676,-0.028245000168681145,0.018386000767350197,0.004263000097125769,-23.100000381469727,11.699999809265137,33.29999923706055
1638389565.583637,1638389565599981828,-0.3639169931411743,-0.08020500093698502,9.967024803161621,-0.02851100079715252,0.018118999898433685,0.0039969999343156815,-23.100000381469727,11.699999809265137,33.29999923706055
1638389565.6005943,1638389565616871544,-0.3507489860057831,-0.05865800008177757,9.976601600646973,-0.02851100079715252,0.01785299926996231,0.003464000066742301,-23.100000381469727,11.699999809265137,33.29999923706055
1638389565.61948,1638389565635819540,-0.3567349910736084,-0.11013299971818924,9.9694185256958,-0.028245000168681145,0.017587000504136086,0.003197999903932214,-23.100000381469727,11.699999809265137,33.29999923706055
1638389565.6591842,1638389565675661938,-0.36152300238609314,-0.07541699707508087,9.947871208190918,-0.028245000168681145,0.017319999635219574,0.004796000197529793,-23.700000762939453,12.899999618530273,33.29999923706055
1638389565.6624284,1638389565678825501,-0.34237000346183777,-0.09097900241613388,9.988572120666504,-0.02851100079715252,0.018386000767350197,0.003464000066742301,-23.700000762939453,12.899999618530273,33.29999923706055
1638389565.6801553,1638389565696603423,-0.36990299820899963,-0.0562639981508255,9.965827941894531,-0.02877799980342388,0.01918499916791916,0.0037299999967217445,-23.700000762939453,12.899999618530273,33.29999923706055
1638389565.7009478,1638389565717363403,-0.3232159912586212,-0.06583999842405319,9.959842681884766,-0.02877799980342388,0.01785299926996231,0.0037299999967217445,-23.700000762939453,12.899999618530273,33.29999923706055
1638389565.7213552,1638389565737333038,-0.403421014547348,-0.07781100273132324,9.949068069458008,-0.02851100079715252,0.01918499916791916,0.003464000066742301,-23.700000762939453,12.899999618530273,33.29999923706055
1638389565.7471716,1638389565762328064,-0.34237000346183777,-0.08379700034856796,9.967024803161621,-0.02877799980342388,0.018118999898433685,0.004263000097125769,-23.700000762939453,11.100000381469727,35.10000228881836
1638389565.7655635,1638389565779866044,-0.3651140034198761,-0.08020500093698502,9.983783721923828,-0.02851100079715252,0.01918499916791916,0.003464000066742301,-23.700000762939453,11.100000381469727,35.10000228881836
1638389565.7853203,1638389565801652247,-0.3627200126647949,-0.06703700125217438,9.984981536865234,-0.02877799980342388,0.018386000767350197,0.004263000097125769,-23.700000762939453,11.100000381469727,35.10000228881836
1638389565.8005881,1638389565816903828,-0.355538010597229,-0.09097900241613388,9.941885948181152,-0.028245000168681145,0.017319999635219574,0.004263000097125769,-23.700000762939453,11.100000381469727,35.10000228881836
1638389565.8201263,1638389565836229678,-0.38666200637817383,-0.08619099855422974,9.95505428314209,-0.02877799980342388,0.018386000767350197,0.004530000034719706,-23.700000762939453,11.100000381469727,35.10000228881836
1638389565.8451757,1638389565861571413,-0.3543410003185272,-0.061051998287439346,9.965827941894531,-0.02851100079715252,0.01785299926996231,0.004263000097125769,-22.200000762939453,10.200000762939453,35.400001525878906
1638389565.8601353,1638389565876513524,-0.3711000084877014,-0.05865800008177757,9.998148918151855,-0.028245000168681145,0.018651999533176422,0.003464000066742301,-22.200000762939453,10.200000762939453,35.400001525878906
1638389565.8807192,1638389565896017338,-0.39384499192237854,-0.08619099855422974,9.994558334350586,-0.02797899954020977,0.018386000767350197,0.0039969999343156815,-22.200000762939453,10.200000762939453,35.400001525878906
1638389565.9019704,1638389565918400348,-0.33877798914909363,-0.0562639981508255,9.95505428314209,-0.02851100079715252,0.01785299926996231,0.0037299999967217445,-22.200000762939453,10.200000762939453,35.400001525878906
1638389565.9411082,1638389565957451101,-0.36870598793029785,-0.0969650000333786,9.947871208190918,-0.029044000431895256,0.018118999898433685,0.0037299999967217445,-22.200000762939453,10.200000762939453,35.400001525878906
1638389565.9449992,1638389565961407456,-0.34476399421691895,-0.0646430030465126,9.974207878112793,-0.02877799980342388,0.018386000767350197,0.0039969999343156815,-23.399999618530273,12.0,36.0
1638389565.9600422,1638389565976472115,-0.36870598793029785,-0.07062900066375732,10.012514114379883,-0.028245000168681145,0.01785299926996231,0.0037299999967217445,-23.399999618530273,12.0,36.0
1638389565.9844828,1638389566000739035,-0.35314300656318665,-0.09217599779367447,9.978996276855469,-0.02851100079715252,0.018651999533176422,0.0037299999967217445,-23.399999618530273,12.0,36.0
1638389566.0030327,1638389566019210796,-0.3459610044956207,-0.08499400317668915,9.9694185256958,-0.02851100079715252,0.017587000504136086,0.0037299999967217445,-23.399999618530273,12.0,36.0
1638389566.0543168,1638389566070496347,-0.3483549952507019,-0.05985499918460846,9.937097549438477,-0.02797899954020977,0.01785299926996231,0.0039969999343156815,-23.399999618530273,12.0,36.0
1638389566.0581226,1638389566074504212,-0.36870598793029785,-0.07062900066375732,9.95744800567627,-0.028245000168681145,0.018919000402092934,0.003464000066742301,-23.399999618530273,10.800000190734863,35.400001525878906
1638389566.0619905,1638389566078361873,-0.3268069922924042,-0.09217599779367447,10.000543594360352,-0.02877799980342388,0.017319999635219574,0.003464000066742301,-23.399999618530273,10.800000190734863,35.400001525878906
1638389566.0819814,1638389566098383387,-0.36990299820899963,-0.061051998287439346,9.95744800567627,-0.028245000168681145,0.018118999898433685,0.0039969999343156815,-23.399999618530273,10.800000190734863,35.400001525878906
1638389566.1020133,1638389566118352455,-0.33758100867271423,-0.06583999842405319,10.022090911865234,-0.02877799980342388,0.018919000402092934,0.0039969999343156815,-23.399999618530273,10.800000190734863,35.400001525878906
1638389566.1541758,1638389566170492203,-0.355538010597229,-0.08619099855422974,9.928717613220215,-0.02851100079715252,0.01918499916791916,0.0037299999967217445,-23.399999618530273,10.800000190734863,35.400001525878906
1638389566.1591485,1638389566174433611,-0.38426798582077026,-0.05985499918460846,10.001740455627441,-0.02797899954020977,0.018118999898433685,0.004263000097125769,-22.5,12.300000190734863,35.10000228881836
1638389566.1621263,1638389566178454132,-0.33758100867271423,-0.07781100273132324,10.006528854370117,-0.02797899954020977,0.01785299926996231,0.004263000097125769,-22.5,12.300000190734863,35.10000228881836
1638389566.1825614,1638389566198408253,-0.36990299820899963,-0.08259999752044678,9.99216365814209,-0.029044000431895256,0.01785299926996231,0.004530000034719706,-22.5,12.300000190734863,35.10000228881836
1638389566.2018595,1638389566218094515,-0.38307100534439087,-0.0730229988694191,10.007725715637207,-0.02931099943816662,0.018118999898433685,0.004796000197529793,-22.5,12.300000190734863,35.10000228881836
1638389566.2538722,1638389566270108068,-0.3315959870815277,-0.08619099855422974,9.984981536865234,-0.02877799980342388,0.017587000504136086,0.0037299999967217445,-22.5,12.300000190734863,35.10000228881836
1638389566.2578216,1638389566274183901,-0.36990299820899963,-0.0897819995880127,9.974207878112793,-0.027712000533938408,0.017587000504136086,0.003464000066742301,-21.600000381469727,10.800000190734863,35.400001525878906
1638389566.2617788,1638389566278173068,-0.355538010597229,-0.07661399990320206,9.970616340637207,-0.029044000431895256,0.017319999635219574,0.0037299999967217445,-21.600000381469727,10.800000190734863,35.400001525878906
1638389566.2816596,1638389566297998494,-0.3148359954357147,-0.08738800138235092,9.951462745666504,-0.02877799980342388,0.018118999898433685,0.004263000097125769,-21.600000381469727,10.800000190734863,35.400001525878906
1638389566.3013659,1638389566317798816,-0.3818739950656891,-0.0897819995880127,9.98976993560791,-0.02877799980342388,0.018118999898433685,0.003464000066742301,-21.600000381469727,10.800000190734863,35.400001525878906
1638389566.3537471,1638389566369969657,-0.3339900076389313,-0.055066000670194626,9.959842681884766,-0.027712000533938408,0.018651999533176422,0.003197999903932214,-21.600000381469727,10.800000190734863,35.400001525878906
1638389566.3576813,1638389566374067780,-0.3663119971752167,-0.09097900241613388,9.982586860656738,-0.02877799980342388,0.017587000504136086,0.004263000097125769,-23.399999618530273,12.600000381469727,34.79999923706055
1638389566.362479,1638389566378072312,-0.3483549952507019,-0.061051998287439346,9.998148918151855,-0.029044000431895256,0.017319999635219574,0.0039969999343156815,-23.399999618530273,12.600000381469727,34.79999923706055
1638389566.38223,1638389566398114191,-0.38666200637817383,-0.08020500093698502,9.941885948181152,-0.029044000431895256,0.018386000767350197,0.003464000066742301,-23.399999618530273,12.600000381469727,34.79999923706055
1638389566.4016871,1638389566418027947,-0.3483549952507019,-0.06583999842405319,9.93350601196289,-0.02851100079715252,0.01918499916791916,0.0037299999967217445,-23.399999618530273,12.600000381469727,34.79999923706055
1638389566.4538848,1638389566470111290,-0.33758100867271423,-0.08738800138235092,9.927520751953125,-0.028245000168681145,0.018386000767350197,0.004263000097125769,-23.399999618530273,12.600000381469727,34.79999923706055
1638389566.4578657,1638389566474214101,-0.3639169931411743,-0.07781100273132324,9.986178398132324,-0.028245000168681145,0.01918499916791916,0.0037299999967217445,-23.700000762939453,12.300000190734863,34.5
1638389566.4625442,1638389566478332641,-0.3507489860057831,-0.06344600021839142,9.986178398132324,-0.02877799980342388,0.018651999533176422,0.003464000066742301,-23.700000762939453,12.300000190734863,34.5
1638389566.481675,1638389566498008591,-0.33518698811531067,-0.04908100143074989,9.9694185256958,-0.02877799980342388,0.017319999635219574,0.004796000197529793,-23.700000762939453,12.300000190734863,34.5
1638389566.5017326,1638389566517781674,-0.3543410003185272,-0.07062900066375732,9.95864486694336,-0.02877799980342388,0.017587000504136086,0.00506300013512373,-23.700000762939453,12.300000190734863,34.5
1638389566.5408864,1638389566557006807,-0.36032599210739136,-0.07422000169754028,9.953856468200684,-0.028245000168681145,0.017319999635219574,0.0039969999343156815,-23.700000762939453,12.300000190734863,34.5
1638389566.5446048,1638389566560922019,-0.324413001537323,-0.10534399747848511,9.959842681884766,-0.02851100079715252,0.018386000767350197,0.004263000097125769,-21.899999618530273,10.5,36.29999923706055
1638389566.5618095,1638389566578100013,-0.3495520055294037,-0.06823399662971497,9.993361473083496,-0.02851100079715252,0.018118999898433685,0.0039969999343156815,-21.899999618530273,10.5,36.29999923706055
1638389566.5816088,1638389566597909970,-0.3495520055294037,-0.07182600349187851,10.022090911865234,-0.02877799980342388,0.017587000504136086,0.003197999903932214,-21.899999618530273,10.5,36.29999923706055
1638389566.6013877,1638389566617717115,-0.39145100116729736,-0.09097900241613388,9.964631080627441,-0.02877799980342388,0.01918499916791916,0.0039969999343156815,-21.899999618530273,10.5,36.29999923706055
1638389566.6429536,1638389566659201409,-0.34356701374053955,-0.09457100182771683,9.995755195617676,-0.02851100079715252,0.017587000504136086,0.004263000097125769,-21.899999618530273,10.5,36.29999923706055
1638389566.6470015,1638389566663157244,-0.3639169931411743,-0.08379700034856796,9.973010063171387,-0.02851100079715252,0.01785299926996231,0.0037299999967217445,-24.0,13.199999809265137,35.400001525878906
1638389566.6617382,1638389566678039881,-0.32082200050354004,-0.061051998287439346,10.005331993103027,-0.029044000431895256,0.018651999533176422,0.004530000034719706,-24.0,13.199999809265137,35.400001525878906
1638389566.6816225,1638389566697919159,-0.36032599210739136,-0.07541699707508087,9.939491271972656,-0.02877799980342388,0.018118999898433685,0.002930999966338277,-24.0,13.199999809265137,35.400001525878906
1638389566.7013273,1638389566717740470,-0.36750900745391846,-0.07661399990320206,10.004135131835938,-0.02851100079715252,0.01785299926996231,0.0039969999343156815,-24.0,13.199999809265137,35.400001525878906
1638389566.742345,1638389566758718475,-0.36870598793029785,-0.08259999752044678,9.95505428314209,-0.02877799980342388,0.018386000767350197,0.0037299999967217445,-24.0,13.199999809265137,35.400001525878906
1638389566.7466013,1638389566762754933,-0.355538010597229,-0.09935899823904037,9.949068069458008,-0.02877799980342388,0.018118999898433685,0.003197999903932214,-22.5,11.699999809265137,32.70000076293945
1638389566.7613928,1638389566777778868,-0.3315959870815277,-0.09816200286149979,10.030470848083496,-0.02851100079715252,0.01785299926996231,0.002930999966338277,-22.5,11.699999809265137,32.70000076293945
1638389566.785514,1638389566801727000,-0.3303990066051483,-0.06943199783563614,9.962236404418945,-0.02851100079715252,0.018118999898433685,0.004263000097125769,-22.5,11.699999809265137,32.70000076293945
1638389566.8077624,1638389566823483053,-0.33638399839401245,-0.08499400317668915,9.977798461914062,-0.029044000431895256,0.018118999898433685,0.004263000097125769,-22.5,11.699999809265137,32.70000076293945
1638389566.8556478,1638389566871846075,-0.3471580147743225,-0.10893599689006805,9.973010063171387,-0.02851100079715252,0.01918499916791916,0.004263000097125769,-22.5,11.699999809265137,32.70000076293945
1638389566.8596423,1638389566875743995,-0.3507489860057831,-0.08020500093698502,9.983783721923828,-0.02877799980342388,0.01785299926996231,0.0039969999343156815,-22.200000762939453,11.40000057220459,34.79999923706055
1638389566.8632805,1638389566879578844,-0.3483549952507019,-0.08619099855422974,9.98976993560791,-0.02851100079715252,0.017319999635219574,0.004263000097125769,-22.200000762939453,11.40000057220459,34.79999923706055
1638389566.8834412,1638389566899471560,-0.34237000346183777,-0.09217599779367447,9.945476531982422,-0.028245000168681145,0.017319999635219574,0.0039969999343156815,-22.200000762939453,11.40000057220459,34.79999923706055
1638389566.9039311,1638389566919350161,-0.36152300238609314,-0.057461000978946686,9.9694185256958,-0.02877799980342388,0.018651999533176422,0.0039969999343156815,-22.200000762939453,11.40000057220459,34.79999923706055
1638389566.955212,1638389566971427775,-0.3663119971752167,-0.08259999752044678,9.978996276855469,-0.02931099943816662,0.018386000767350197,0.004530000034719706,-22.200000762939453,11.40000057220459,34.79999923706055
1638389566.9592166,1638389566975364757,-0.34476399421691895,-0.09217599779367447,9.945476531982422,-0.028245000168681145,0.018118999898433685,0.003464000066742301,-24.0,12.0,34.79999923706055
1638389566.9631715,1638389566979378299,-0.35314300656318665,-0.07541699707508087,9.99216365814209,-0.02797899954020977,0.018651999533176422,0.0039969999343156815,-24.0,12.0,34.79999923706055
1638389566.9830954,1638389566999351429,-0.35314300656318665,-0.05865800008177757,9.946674346923828,-0.02877799980342388,0.018118999898433685,0.004263000097125769,-24.0,12.0,34.79999923706055
1638389567.002717,1638389567019034778,-0.3232159912586212,-0.061051998287439346,9.976601600646973,-0.029044000431895256,0.018386000767350197,0.0039969999343156815,-24.0,12.0,34.79999923706055
1638389567.0417225,1638389567058038157,-0.35194599628448486,-0.09576799720525742,9.93350601196289,-0.02851100079715252,0.018118999898433685,0.003464000066742301,-24.0,12.0,34.79999923706055
1638389567.0458217,1638389567062209612,-0.36750900745391846,-0.06583999842405319,9.927520751953125,-0.02877799980342388,0.018118999898433685,0.004530000034719706,-22.200000762939453,13.199999809265137,34.79999923706055
1638389567.0631065,1638389567079301103,-0.3579320013523102,-0.06344600021839142,9.974207878112793,-0.02851100079715252,0.018386000767350197,0.004263000097125769,-22.200000762939453,13.199999809265137,34.79999923706055
1638389567.0834537,1638389567099405433,-0.37588798999786377,-0.07781100273132324,9.99216365814209,-0.028245000168681145,0.018118999898433685,0.003464000066742301,-22.200000762939453,13.199999809265137,34.79999923706055
1638389567.102903,1638389567119222739,-0.3663119971752167,-0.08619099855422974,9.980193138122559,-0.029044000431895256,0.017319999635219574,0.0037299999967217445,-22.200000762939453,13.199999809265137,34.79999923706055
1638389567.1549566,1638389567171352083,-0.39983001351356506,-0.08858499675989151,9.949068069458008,-0.02877799980342388,0.018386000767350197,0.002930999966338277,-22.200000762939453,13.199999809265137,34.79999923706055
1638389567.1590698,1638389567175439062,-0.355538010597229,-0.10055600106716156,9.962236404418945,-0.02851100079715252,0.018386000767350197,0.002930999966338277,-25.200000762939453,12.600000381469727,34.19999694824219
1638389567.162961,1638389567179322088,-0.36870598793029785,-0.10534399747848511,10.042442321777344,-0.02877799980342388,0.017587000504136086,0.003464000066742301,-25.200000762939453,12.600000381469727,34.19999694824219
1638389567.1868207,1638389567202981015,-0.36870598793029785,-0.07062900066375732,9.980193138122559,-0.02851100079715252,0.018919000402092934,0.003464000066742301,-25.200000762939453,12.600000381469727,34.19999694824219
1638389567.2050226,1638389567220091150,-0.36750900745391846,-0.08259999752044678,9.995755195617676,-0.028245000168681145,0.01785299926996231,0.004263000097125769,-25.200000762939453,12.600000381469727,34.19999694824219
1638389567.2420328,1638389567258236061,-0.3711000084877014,-0.08619099855422974,9.952659606933594,-0.028245000168681145,0.01918499916791916,0.0039969999343156815,-25.200000762939453,12.600000381469727,34.19999694824219
1638389567.2461295,1638389567262377465,-0.35314300656318665,-0.08140300214290619,9.9694185256958,-0.028245000168681145,0.01785299926996231,0.0039969999343156815,-23.700000762939453,12.300000190734863,34.5
1638389567.263423,1638389567279438748,-0.36990299820899963,-0.08259999752044678,9.984981536865234,-0.02851100079715252,0.018651999533176422,0.003464000066742301,-23.700000762939453,12.300000190734863,34.5
1638389567.2829435,1638389567299261366,-0.36750900745391846,-0.07661399990320206,10.005331993103027,-0.02877799980342388,0.018118999898433685,0.0039969999343156815,-23.700000762939453,12.300000190734863,34.5
1638389567.302705,1638389567319007945,-0.3651140034198761,-0.09097900241613388,9.974207878112793,-0.029044000431895256,0.018386000767350197,0.0039969999343156815,-23.700000762939453,12.300000190734863,34.5
1638389567.356962,1638389567373353014,-0.3315959870815277,-0.08020500093698502,9.928717613220215,-0.02851100079715252,0.018118999898433685,0.004263000097125769,-23.100000381469727,11.100000381469727,35.10000228881836
1638389567.3631506,1638389567379449629,-0.32082200050354004,-0.06703700125217438,10.002937316894531,-0.02877799980342388,0.01705400086939335,0.004263000097125769,-23.100000381469727,11.100000381469727,35.10000228881836
1638389567.3830278,1638389567399344642,-0.33638399839401245,-0.09337399899959564,9.9694185256958,-0.02877799980342388,0.018386000767350197,0.003197999903932214,-23.100000381469727,11.100000381469727,35.10000228881836
1638389567.403271,1638389567419387671,-0.3722969889640808,-0.07661399990320206,9.940689086914062,-0.028245000168681145,0.017587000504136086,0.0037299999967217445,-23.100000381469727,11.100000381469727,35.10000228881836
1638389567.4553459,1638389567471607014,-0.3543410003185272,-0.09337399899959564,9.982586860656738,-0.02851100079715252,0.017587000504136086,0.0037299999967217445,-23.100000381469727,11.100000381469727,35.10000228881836
1638389567.5327065,1638389567475450665,-0.35194599628448486,-0.09097900241613388,9.984981536865234,-0.02851100079715252,0.018919000402092934,0.0039969999343156815,-23.100000381469727,12.300000190734863,33.900001525878906
1638389567.5327175,1638389567479370930,-0.3483549952507019,-0.10175299644470215,10.012514114379883,-0.02877799980342388,0.018118999898433685,0.0039969999343156815,-23.100000381469727,12.300000190734863,33.900001525878906
1638389567.5327215,1638389567499316305,-0.3399749994277954,-0.09217599779367447,9.982586860656738,-0.029044000431895256,0.018118999898433685,0.004263000097125769,-23.100000381469727,12.300000190734863,33.900001525878906
1638389567.5327253,1638389567519242619,-0.3567349910736084,-0.09457100182771683,9.976601600646973,-0.02851100079715252,0.018386000767350197,0.004263000097125769,-23.100000381469727,12.300000190734863,33.900001525878906
1638389567.5441363,1638389567560512346,-0.34237000346183777,-0.12449800223112106,9.971813201904297,-0.02877799980342388,0.01785299926996231,0.004263000097125769,-22.5,11.699999809265137,35.10000228881836
1638389567.563431,1638389567579769041,-0.36750900745391846,-0.07062900066375732,9.951462745666504,-0.027712000533938408,0.018386000767350197,0.004263000097125769,-22.5,11.699999809265137,35.10000228881836
1638389567.5834756,1638389567599637752,-0.355538010597229,-0.06344600021839142,9.971813201904297,-0.028245000168681145,0.018386000767350197,0.003464000066742301,-22.5,11.699999809265137,35.10000228881836
1638389567.6036954,1638389567619383081,-0.3579320013523102,-0.08619099855422974,9.968221664428711,-0.02877799980342388,0.017319999635219574,0.002930999966338277,-22.5,11.699999809265137,35.10000228881836
1638389567.6440725,1638389567660417136,-0.35194599628448486,-0.08140300214290619,9.978996276855469,-0.029044000431895256,0.017587000504136086,0.0039969999343156815,-26.100000381469727,13.5,35.70000076293945
1638389567.6634207,1638389567679787214,-0.3459610044956207,-0.06583999842405319,9.967024803161621,-0.02851100079715252,0.018651999533176422,0.004263000097125769,-26.100000381469727,13.5,35.70000076293945
1638389567.6831615,1638389567699519939,-0.33638399839401245,-0.06583999842405319,9.963433265686035,-0.028245000168681145,0.018118999898433685,0.004263000097125769,-26.100000381469727,13.5,35.70000076293945
1638389567.704188,1638389567719277715,-0.3543410003185272,-0.061051998287439346,9.963433265686035,-0.02877799980342388,0.018386000767350197,0.003464000066742301,-26.100000381469727,13.5,35.70000076293945
1638389567.757429,1638389567773597733,-0.3567349910736084,-0.09337399899959564,9.931112289428711,-0.02797899954020977,0.018651999533176422,0.004263000097125769,-22.80000114440918,11.40000057220459,34.79999923706055
1638389567.763822,1638389567779882781,-0.3327929973602295,-0.0730229988694191,9.999346733093262,-0.02797899954020977,0.018118999898433685,0.0037299999967217445,-22.80000114440918,11.40000057220459,34.79999923706055
1638389567.7833781,1638389567799745242,-0.3663119971752167,-0.10534399747848511,9.977798461914062,-0.028245000168681145,0.018386000767350197,0.004796000197529793,-22.80000114440918,11.40000057220459,34.79999923706055
1638389567.8033414,1638389567819651504,-0.33638399839401245,-0.06823399662971497,9.999346733093262,-0.02877799980342388,0.017319999635219574,0.0037299999967217445,-22.80000114440918,11.40000057220459,34.79999923706055
1638389567.8446665,1638389567860964562,-0.3507489860057831,-0.07781100273132324,9.93470287322998,-0.02877799980342388,0.018651999533176422,0.0037299999967217445,-23.100000381469727,11.699999809265137,33.900001525878906
1638389567.864174,1638389567880480730,-0.3543410003185272,-0.061051998287439346,9.952659606933594,-0.02797899954020977,0.018118999898433685,0.003464000066742301,-23.100000381469727,11.699999809265137,33.900001525878906
1638389567.8845367,1638389567900825627,-0.33638399839401245,-0.08379700034856796,9.970616340637207,-0.02877799980342388,0.016787000000476837,0.0037299999967217445,-23.100000381469727,11.699999809265137,33.900001525878906
1638389567.9042962,1638389567920313931,-0.3483549952507019,-0.0897819995880127,9.967024803161621,-0.02851100079715252,0.01785299926996231,0.004263000097125769,-23.100000381469727,11.699999809265137,33.900001525878906
1638389567.943076,1638389567959238301,-0.3711000084877014,-0.08140300214290619,9.944279670715332,-0.02851100079715252,0.018919000402092934,0.003464000066742301,-23.100000381469727,11.699999809265137,33.900001525878906
1638389567.9472904,1638389567963340019,-0.36032599210739136,-0.07541699707508087,9.923929214477539,-0.028245000168681145,0.018919000402092934,0.0039969999343156815,-22.5,10.5,36.900001525878906
1638389567.964153,1638389567980394375,-0.3567349910736084,-0.06344600021839142,9.995755195617676,-0.02851100079715252,0.01785299926996231,0.004263000097125769,-22.5,10.5,36.900001525878906
1638389567.9870334,1638389568003233530,-0.36032599210739136,-0.10055600106716156,10.007725715637207,-0.02851100079715252,0.01785299926996231,0.004263000097125769,-22.5,10.5,36.900001525878906
1638389568.0039685,1638389568020246797,-0.35912901163101196,-0.08619099855422974,9.988572120666504,-0.028245000168681145,0.018651999533176422,0.004263000097125769,-22.5,10.5,36.900001525878906
1638389568.0420542,1638389568058233336,-0.3411720097064972,-0.08020500093698502,9.999346733093262,-0.028245000168681145,0.017319999635219574,0.0037299999967217445,-22.5,10.5,36.900001525878906
1638389568.0464172,1638389568062612027,-0.3399749994277954,-0.04788399860262871,9.976601600646973,-0.02877799980342388,0.01705400086939335,0.0037299999967217445,-23.700000762939453,12.300000190734863,34.5
1638389568.0644507,1638389568080540219,-0.3411720097064972,-0.09337399899959564,10.02687931060791,-0.02877799980342388,0.018118999898433685,0.004263000097125769,-23.700000762939453,12.300000190734863,34.5
1638389568.084505,1638389568100836945,-0.3543410003185272,-0.06823399662971497,9.964631080627441,-0.02877799980342388,0.018118999898433685,0.0037299999967217445,-23.700000762939453,12.300000190734863,34.5
1638389568.1040847,1638389568120352493,-0.3974359929561615,-0.0897819995880127,9.940689086914062,-0.02877799980342388,0.018919000402092934,0.0037299999967217445,-23.700000762939453,12.300000190734863,34.5
1638389568.145044,1638389568161352862,-0.3399749994277954,-0.0730229988694191,9.9694185256958,-0.029044000431895256,0.018118999898433685,0.0037299999967217445,-22.5,10.5,34.5
1638389568.1643887,1638389568180652218,-0.36990299820899963,-0.055066000670194626,10.042442321777344,-0.02877799980342388,0.01785299926996231,0.004263000097125769,-22.5,10.5,34.5
1638389568.1848338,1638389568200993265,-0.36870598793029785,-0.08738800138235092,9.95864486694336,-0.02851100079715252,0.017319999635219574,0.0039969999343156815,-22.5,10.5,34.5
1638389568.204176,1638389568220467669,-0.33877798914909363,-0.08379700034856796,10.010120391845703,-0.028245000168681145,0.017587000504136086,0.0026650000363588333,-22.5,10.5,34.5
1638389568.2450745,1638389568261212159,-0.32920199632644653,-0.08499400317668915,9.993361473083496,-0.02877799980342388,0.017587000504136086,0.0039969999343156815,-23.399999618530273,11.40000057220459,35.400001525878906
1638389568.2643294,1638389568280555784,-0.3268069922924042,-0.08858499675989151,9.995755195617676,-0.02877799980342388,0.018118999898433685,0.0039969999343156815,-23.399999618530273,11.40000057220459,35.400001525878906
1638389568.2844412,1638389568300704128,-0.35314300656318665,-0.039503999054431915,9.965827941894531,-0.028245000168681145,0.018118999898433685,0.004796000197529793,-23.399999618530273,11.40000057220459,35.400001525878906
1638389568.3042078,1638389568320531751,-0.3471580147743225,-0.07182600349187851,10.006528854370117,-0.02877799980342388,0.017587000504136086,0.003464000066742301,-23.399999618530273,11.40000057220459,35.400001525878906
1638389568.3437798,1638389568360048616,-0.3268069922924042,-0.07900799810886383,9.95505428314209,-0.02851100079715252,0.018118999898433685,0.004263000097125769,-23.399999618530273,11.40000057220459,35.400001525878906
1638389568.3478353,1638389568363990600,-0.3579320013523102,-0.09816200286149979,9.963433265686035,-0.02877799980342388,0.018118999898433685,0.0039969999343156815,-23.100000381469727,12.300000190734863,33.900001525878906
1638389568.3670933,1638389568383265581,-0.36032599210739136,-0.06224900111556053,9.973010063171387,-0.02877799980342388,0.01785299926996231,0.003197999903932214,-23.100000381469727,12.300000190734863,33.900001525878906
1638389568.3857536,1638389568401601888,-0.35314300656318665,-0.08379700034856796,10.002937316894531,-0.02851100079715252,0.018386000767350197,0.004263000097125769,-23.100000381469727,12.300000190734863,33.900001525878906
1638389568.406203,1638389568422378706,-0.3734939992427826,-0.06703700125217438,9.940689086914062,-0.02877799980342388,0.017587000504136086,0.0039969999343156815,-23.100000381469727,12.300000190734863,33.900001525878906
1638389568.4600523,1638389568475973600,-0.36152300238609314,-0.04788399860262871,9.886819839477539,-0.02877799980342388,0.018118999898433685,0.004263000097125769,-23.100000381469727,10.5,35.10000228881836
1638389568.464676,1638389568480835612,-0.3543410003185272,-0.09097900241613388,10.012514114379883,-0.029044000431895256,0.01785299926996231,0.0039969999343156815,-23.100000381469727,10.5,35.10000228881836
1638389568.4854572,1638389568501482225,-0.34356701374053955,-0.07661399990320206,9.939491271972656,-0.028245000168681145,0.017587000504136086,0.0037299999967217445,-23.100000381469727,10.5,35.10000228881836
1638389568.5607648,1638389568522791113,-0.3495520055294037,-0.08499400317668915,9.976601600646973,-0.02877799980342388,0.017319999635219574,0.0039969999343156815,-23.100000381469727,10.5,35.10000228881836
1638389568.560785,1638389568560662915,-0.36032599210739136,-0.09816200286149979,10.007725715637207,-0.02877799980342388,0.018118999898433685,0.0039969999343156815,-23.100000381469727,11.100000381469727,35.70000076293945
1638389568.5667696,1638389568582414032,-0.35314300656318665,-0.09337399899959564,10.002937316894531,-0.028245000168681145,0.01785299926996231,0.003464000066742301,-23.100000381469727,11.100000381469727,35.70000076293945
1638389568.5843174,1638389568600494199,-0.3543410003185272,-0.07541699707508087,9.968221664428711,-0.02851100079715252,0.018386000767350197,0.0039969999343156815,-23.100000381469727,11.100000381469727,35.70000076293945
1638389568.6062558,1638389568622008603,-0.34476399421691895,0.004788000136613846,10.041245460510254,-0.02931099943816662,0.01785299926996231,0.004530000034719706,-23.100000381469727,11.100000381469727,35.70000076293945
1638389568.6577003,1638389568673861978,-0.6093220114707947,-0.2932890057563782,9.890410423278809,-0.03730500116944313,0.021316999569535255,0.0037299999967217445,-24.0,12.600000381469727,33.60000228881836
1638389568.6657784,1638389568681409235,-0.5446789860725403,-0.22505399584770203,10.154969215393066,-0.04396599903702736,0.018118999898433685,0.00506300013512373,-24.0,12.600000381469727,33.60000228881836
1638389568.6846638,1638389568700818640,-0.31124499440193176,0.12689200043678284,9.874848365783691,-0.05036100000143051,0.013856000266969204,-0.009060000069439411,-24.0,12.600000381469727,33.60000228881836
1638389568.7069566,1638389568722335387,-0.3459610044956207,-0.5758029818534851,9.943082809448242,-0.04130199924111366,0.015188000164926052,0.05036100000143051,-24.0,12.600000381469727,33.60000228881836
1638389568.74496,1638389568761097479,-0.1292860060930252,0.3794800043106079,9.953856468200684,-0.02078399993479252,0.015987999737262726,-0.018386000767350197,-23.100000381469727,11.100000381469727,33.29999923706055
1638389568.7641966,1638389568780459906,-0.33758100867271423,-0.3076539933681488,9.947871208190918,-0.025846999138593674,0.016787000000476837,0.035172998905181885,-23.100000381469727,11.100000381469727,33.29999923706055
1638389568.7846289,1638389568800878556,-0.2813180088996887,-0.1448490023612976,9.89879035949707,-0.026112999767065048,0.020251000300049782,0.003197999903932214,-23.100000381469727,11.100000381469727,33.29999923706055
1638389568.8063402,1638389568822334784,-0.26216399669647217,-0.011970999650657177,9.925126075744629,-0.016520999372005463,0.016787000000476837,-0.004796000197529793,-23.100000381469727,11.100000381469727,33.29999923706055
1638389568.8560839,1638389568872057276,-0.15801699459552765,0.2190690040588379,9.984981536865234,-0.022115999832749367,0.017587000504136086,-0.009592999704182148,-23.100000381469727,11.100000381469727,33.900001525878906
1638389568.8664656,1638389568882657425,-0.3878589868545532,-0.259770005941391,10.038850784301758,-0.029577000066637993,0.018386000767350197,0.0162540003657341,-23.100000381469727,11.100000381469727,33.900001525878906
1638389568.884561,1638389568900597283,-0.26216399669647217,0.03711000084877014,9.984981536865234,-0.027712000533938408,0.01918499916791916,-0.003197999903932214,-23.100000381469727,11.100000381469727,33.900001525878906
1638389568.905998,1638389568922202830,-0.4213779866695404,-0.1137240007519722,10.02568244934082,-0.02797899954020977,0.018386000767350197,0.008527000434696674,-23.100000381469727,11.100000381469727,33.900001525878906
1638389568.9577818,1638389568974016884,-0.43215200304985046,-0.1448490023612976,9.976601600646973,-0.027712000533938408,0.01785299926996231,0.006395000033080578,-20.100000381469727,11.699999809265137,36.29999923706055
1638389568.9667883,1638389568982388339,-0.40940698981285095,-0.08259999752044678,9.93350601196289,-0.02877799980342388,0.018386000767350197,0.0018649999983608723,-20.100000381469727,11.699999809265137,36.29999923706055
1638389568.987022,1638389569002871414,-0.3818739950656891,-0.10534399747848511,10.000543594360352,-0.029577000066637993,0.017587000504136086,0.004263000097125769,-20.100000381469727,11.699999809265137,36.29999923706055
1638389569.0062492,1638389569022184211,-0.3651140034198761,-0.08499400317668915,9.959842681884766,-0.02851100079715252,0.018919000402092934,0.002930999966338277,-20.100000381469727,11.699999809265137,36.29999923706055
1638389569.0561924,1638389569072147230,-0.355538010597229,-0.10414700210094452,9.950265884399414,-0.029044000431895256,0.018386000767350197,0.0037299999967217445,-23.700000762939453,12.899999618530273,32.70000076293945
1638389569.06637,1638389569082600302,-0.3495520055294037,-0.07661399990320206,10.011317253112793,-0.027712000533938408,0.01918499916791916,0.0039969999343156815,-23.700000762939453,12.899999618530273,32.70000076293945
1638389569.087374,1638389569102977500,-0.3256100118160248,-0.05985499918460846,10.016105651855469,-0.02877799980342388,0.018651999533176422,0.004263000097125769,-23.700000762939453,12.899999618530273,32.70000076293945
1638389569.1060474,1638389569122293162,-0.3172309994697571,-0.0646430030465126,9.945476531982422,-0.028245000168681145,0.018386000767350197,0.003197999903932214,-23.700000762939453,12.899999618530273,32.70000076293945
1638389569.1462617,1638389569161106617,-0.35912901163101196,-0.09097900241613388,9.941885948181152,-0.02877799980342388,0.018386000767350197,0.004530000034719706,-23.700000762939453,12.899999618530273,32.70000076293945
1638389569.149504,1638389569165523069,-0.35912901163101196,-0.09097900241613388,9.941885948181152,-0.02877799980342388,0.018118999898433685,0.003464000066742301,-21.899999618530273,11.699999809265137,36.29999923706055
1638389569.1671054,1638389569183184918,-0.3579320013523102,-0.08499400317668915,10.001740455627441,-0.02877799980342388,0.017319999635219574,0.0039969999343156815,-21.899999618530273,11.699999809265137,36.29999923706055
1638389569.1881986,1638389569203202021,-0.3471580147743225,-0.08858499675989151,9.99216365814209,-0.02851100079715252,0.018118999898433685,0.0037299999967217445,-21.899999618530273,11.699999809265137,36.29999923706055
1638389569.2091157,1638389569225116107,-0.3794800043106079,-0.09935899823904037,9.971813201904297,-0.02797899954020977,0.018386000767350197,0.0037299999967217445,-21.899999618530273,11.699999809265137,36.29999923706055
1638389569.2577686,1638389569273995196,-0.484824001789093,-0.44891101121902466,9.853301048278809,-0.027712000533938408,0.015455000102519989,0.015721000730991364,-23.399999618530273,13.199999809265137,33.60000228881836
1638389569.266127,1638389569282244520,-0.1388629972934723,0.34356701374053955,10.129830360412598,-0.006395000033080578,0.017319999635219574,-0.012257000431418419,-23.399999618530273,13.199999809265137,33.60000228881836
1638389569.2888787,1638389569304577398,-0.4225749969482422,-0.24899600446224213,10.035259246826172,-0.019984999671578407,0.019718000665307045,0.009325999766588211,-23.399999618530273,13.199999809265137,33.60000228881836
1638389569.306258,1638389569322145344,-0.3507489860057831,0.26934701204299927,10.069974899291992,-0.01438899990171194,0.02105100080370903,-0.015987999737262726,-23.399999618530273,13.199999809265137,33.60000228881836
1638389569.3453388,1638389569360959580,-0.35314300656318665,-0.19153499603271484,9.879636764526367,-0.024248000234365463,0.018118999898433685,0.00133200001437217,-23.399999618530273,13.199999809265137,33.60000228881836
1638389569.348903,1638389569364887711,-0.41659000515937805,-0.15203100442886353,9.935900688171387,-0.029044000431895256,0.01918499916791916,0.00532899983227253,-23.100000381469727,12.899999618530273,35.10000228881836
1638389569.3659432,1638389569382188163,-0.3806770145893097,-0.05027800053358078,9.971813201904297,-0.025846999138593674,0.018386000767350197,0.003197999903932214,-23.100000381469727,12.899999618530273,35.10000228881836
1638389569.3861403,1638389569402335211,-0.3627200126647949,-0.10055600106716156,9.983783721923828,-0.02931099943816662,0.018118999898433685,0.0039969999343156815,-23.100000381469727,12.899999618530273,35.10000228881836
1638389569.4061341,1638389569421929980,-0.38307100534439087,-0.03471599891781807,9.9694185256958,-0.02931099943816662,0.01785299926996231,0.003197999903932214,-23.100000381469727,12.899999618530273,35.10000228881836
1638389569.4587047,1638389569473946750,-0.4716559946537018,-0.28012099862098694,9.928717613220215,-0.03304100036621094,0.017319999635219574,0.009060000069439411,-23.700000762939453,11.699999809265137,33.29999923706055
1638389569.4663312,1638389569482295604,-0.3172309994697571,0.24899600446224213,10.123844146728516,-0.03037700057029724,0.018118999898433685,-0.011723999865353107,-23.700000762939453,11.699999809265137,33.29999923706055
1638389569.4872823,1638389569502913212,-0.4955979883670807,-0.37828201055526733,9.978996276855469,-0.035440001636743546,0.01945200003683567,0.0026650000363588333,-23.700000762939453,11.699999809265137,33.29999923706055
1638389569.5063648,1638389569522269342,-0.31363898515701294,0.011970999650657177,10.004135131835938,-0.02797899954020977,0.017319999635219574,-0.0018649999983608723,-23.700000762939453,11.699999809265137,33.29999923706055
1638389569.5431297,1638389569559202688,-0.3232159912586212,0.052671998739242554,9.919140815734863,-0.025313999503850937,0.016787000000476837,0.005861999932676554,-23.700000762939453,11.699999809265137,33.29999923706055
1638389569.5471978,1638389569563138006,-0.36750900745391846,-0.14005999267101288,9.975404739379883,-0.030642999336123466,0.01785299926996231,0.002930999966338277,-22.80000114440918,12.600000381469727,34.19999694824219
1638389569.5662422,1638389569582248777,-0.36990299820899963,-0.1209070011973381,9.9694185256958,-0.029577000066637993,0.018651999533176422,0.004263000097125769,-22.80000114440918,12.600000381469727,34.19999694824219
1638389569.5919414,1638389569608093130,-0.355538010597229,-0.02154799923300743,9.95864486694336,-0.026645999401807785,0.017319999635219574,0.002930999966338277,-22.80000114440918,12.600000381469727,34.19999694824219
1638389569.6064765,1638389569622672765,-0.38307100534439087,-0.12210399657487869,10.002937316894531,-0.029044000431895256,0.017587000504136086,0.004263000097125769,-22.80000114440918,12.600000381469727,34.19999694824219
1638389569.6433444,1638389569659435438,-0.3806770145893097,-0.11731500178575516,10.007725715637207,-0.02931099943816662,0.018651999533176422,0.002930999966338277,-22.80000114440918,12.600000381469727,34.19999694824219
1638389569.6470644,1638389569663317737,-0.324413001537323,-0.05386900156736374,9.940689086914062,-0.02797899954020977,0.01785299926996231,0.0037299999967217445,-24.0,12.0,35.400001525878906
1638389569.6662564,1638389569682542047,-0.37708500027656555,-0.11851300299167633,10.010120391845703,-0.02931099943816662,0.018118999898433685,0.004530000034719706,-24.0,12.0,35.400001525878906
1638389569.6869044,1638389569702876485,-0.3507489860057831,-0.08738800138235092,9.943082809448242,-0.02851100079715252,0.018386000767350197,0.00506300013512373,-24.0,12.0,35.400001525878906
1638389569.7080908,1638389569724367145,-0.3722969889640808,-0.05027800053358078,9.980193138122559,-0.027445999905467033,0.01785299926996231,0.0037299999967217445,-24.0,12.0,35.400001525878906
1638389569.7449276,1638389569761074924,-0.3543410003185272,-0.0969650000333786,9.975404739379883,-0.028245000168681145,0.018118999898433685,0.0037299999967217445,-24.0,12.0,35.400001525878906
1638389569.7488184,1638389569765129926,-0.35314300656318665,-0.08259999752044678,9.993361473083496,-0.02851100079715252,0.01705400086939335,0.0037299999967217445,-24.299999237060547,13.5,33.900001525878906
1638389569.768161,1638389569784449703,-0.3399749994277954,-0.07062900066375732,9.95744800567627,-0.02797899954020977,0.018386000767350197,0.004530000034719706,-24.299999237060547,13.5,33.900001525878906
1638389569.7868912,1638389569802642685,-0.3639169931411743,-0.0897819995880127,9.973010063171387,-0.02797899954020977,0.018118999898433685,0.004263000097125769,-24.299999237060547,13.5,33.900001525878906
1638389569.8079665,1638389569824275372,-0.3339900076389313,-0.04788399860262871,9.935900688171387,-0.02797899954020977,0.018118999898433685,0.0037299999967217445,-24.299999237060547,13.5,33.900001525878906
1638389569.844573,1638389569860838102,-0.3567349910736084,-0.07062900066375732,9.9694185256958,-0.02797899954020977,0.017319999635219574,0.004263000097125769,-24.299999237060547,13.5,33.900001525878906
1638389569.8484144,1638389569864722536,-0.3483549952507019,-0.07182600349187851,9.987375259399414,-0.02851100079715252,0.01785299926996231,0.00506300013512373,-23.100000381469727,11.699999809265137,34.5
1638389569.8686357,1638389569884753285,-0.36870598793029785,-0.09816200286149979,9.968221664428711,-0.02851100079715252,0.01785299926996231,0.0037299999967217445,-23.100000381469727,11.699999809265137,34.5
1638389569.8886395,1638389569904668463,-0.34476399421691895,-0.055066000670194626,9.995755195617676,-0.02877799980342388,0.018386000767350197,0.0037299999967217445,-23.100000381469727,11.699999809265137,34.5
1638389569.9076817,1638389569923960167,-0.3651140034198761,-0.07541699707508087,9.965827941894531,-0.02877799980342388,0.017587000504136086,0.0037299999967217445,-23.100000381469727,11.699999809265137,34.5
1638389569.9575,1638389569973708140,-0.35314300656318665,-0.09337399899959564,9.982586860656738,-0.02851100079715252,0.017587000504136086,0.003464000066742301,-22.80000114440918,12.0,34.79999923706055
1638389569.968699,1638389569984880516,-0.355538010597229,-0.07900799810886383,9.998148918151855,-0.02877799980342388,0.016787000000476837,0.003464000066742301,-22.80000114440918,12.0,34.79999923706055
1638389569.9888,1638389570004720592,-0.3746910095214844,-0.10773900151252747,9.982586860656738,-0.028245000168681145,0.018118999898433685,0.004263000097125769,-22.80000114440918,12.0,34.79999923706055
1638389570.0077653,1638389570024024332,-0.35194599628448486,-0.08140300214290619,9.987375259399414,-0.02877799980342388,0.018118999898433685,0.0039969999343156815,-22.80000114440918,12.0,34.79999923706055
1638389570.0581837,1638389570073793983,-0.3399749994277954,-0.08020500093698502,9.978996276855469,-0.029044000431895256,0.01705400086939335,0.003464000066742301,-21.899999618530273,12.300000190734863,34.5
1638389570.0686276,1638389570084877146,-0.34356701374053955,-0.06943199783563614,10.002937316894531,-0.02797899954020977,0.018386000767350197,0.003464000066742301,-21.899999618530273,12.300000190734863,34.5
1638389570.0884173,1638389570104611240,-0.39145100116729736,-0.07781100273132324,9.980193138122559,-0.02851100079715252,0.018386000767350197,0.004263000097125769,-21.899999618530273,12.300000190734863,34.5
1638389570.1079926,1638389570124060654,-0.3639169931411743,-0.09576799720525742,9.961039543151855,-0.028245000168681145,0.017587000504136086,0.004263000097125769,-21.899999618530273,12.300000190734863,34.5
1638389570.1445732,1638389570160719328,-0.3339900076389313,-0.06583999842405319,9.946674346923828,-0.02851100079715252,0.01785299926996231,0.003197999903932214,-21.899999618530273,12.300000190734863,34.5
1638389570.14846,1638389570164639231,-0.35912901163101196,-0.09337399899959564,9.987375259399414,-0.028245000168681145,0.017587000504136086,0.0037299999967217445,-23.399999618530273,12.0,34.19999694824219
1638389570.1687818,1638389570184642277,-0.3399749994277954,-0.0646430030465126,9.977798461914062,-0.02877799980342388,0.018386000767350197,0.004263000097125769,-23.399999618530273,12.0,34.19999694824219
1638389570.1884344,1638389570204435588,-0.34476399421691895,-0.08259999752044678,9.984981536865234,-0.029044000431895256,0.018386000767350197,0.003464000066742301,-23.399999618530273,12.0,34.19999694824219
1638389570.2076733,1638389570223875211,-0.34476399421691895,-0.10055600106716156,9.968221664428711,-0.029044000431895256,0.017587000504136086,0.0039969999343156815,-23.399999618530273,12.0,34.19999694824219
1638389570.2574017,1638389570273452471,-0.36032599210739136,-0.05985499918460846,9.964631080627441,-0.02851100079715252,0.018651999533176422,0.0037299999967217445,-22.80000114440918,10.800000190734863,36.599998474121094
1638389570.2681973,1638389570284439126,-0.37708500027656555,-0.06703700125217438,10.002937316894531,-0.028245000168681145,0.018118999898433685,0.0037299999967217445,-22.80000114440918,10.800000190734863,36.599998474121094
1638389570.2882686,1638389570304300300,-0.3148359954357147,-0.10175299644470215,9.99216365814209,-0.028245000168681145,0.018118999898433685,0.004263000097125769,-22.80000114440918,10.800000190734863,36.599998474121094
1638389570.3094277,1638389570324978069,-0.34356701374053955,-0.04788399860262871,9.994558334350586,-0.02851100079715252,0.018386000767350197,0.003464000066742301,-22.80000114440918,10.800000190734863,36.599998474121094
1638389570.3436944,1638389570359877256,-0.3495520055294037,-0.09337399899959564,9.980193138122559,-0.02877799980342388,0.018386000767350197,0.0039969999343156815,-22.80000114440918,10.800000190734863,36.599998474121094
1638389570.35017,1638389570365650133,-0.36032599210739136,-0.0969650000333786,9.971813201904297,-0.02851100079715252,0.016787000000476837,0.0039969999343156815,-22.200000762939453,12.600000381469727,34.19999694824219
1638389570.3685894,1638389570384255922,-0.35912901163101196,-0.17597299814224243,9.86646842956543,-0.03277499973773956,0.017587000504136086,0.0023980000987648964,-22.200000762939453,12.600000381469727,34.19999694824219
1638389570.3910148,1638389570406250064,-0.4788390100002289,-0.08020500093698502,10.010120391845703,-0.031176000833511353,0.019718000665307045,0.0005329999839887023,-22.200000762939453,12.600000381469727,34.19999694824219
1638389570.409484,1638389570425737550,-0.43334901332855225,0.008379999548196793,10.102296829223633,-0.03810400143265724,0.020517999306321144,0.005861999932676554,-22.200000762939453,12.600000381469727,34.19999694824219
1638389570.4594495,1638389570473811619,-0.32920199632644653,-0.16519899666309357,9.852103233337402,-0.0418349988758564,0.016520999372005463,0.018118999898433685,-22.200000762939453,13.199999809265137,34.79999923706055
1638389570.4701087,1638389570485570702,-0.5865769982337952,-0.6069279909133911,9.762321472167969,-0.03437399864196777,0.016520999372005463,0.019984999671578407,-22.200000762939453,13.199999809265137,34.79999923706055
1638389570.4890501,1638389570505149904,-0.37588798999786377,0.07541699707508087,9.963433265686035,-0.02158300019800663,0.016787000000476837,-0.014123000204563141,-22.200000762939453,13.199999809265137,34.79999923706055
1638389570.5078788,1638389570523741631,-0.2741349935531616,-0.11851300299167633,10.02328872680664,-0.023448999971151352,0.016787000000476837,0.01358999963849783,-22.200000762939453,13.199999809265137,34.79999923706055
1638389570.544444,1638389570560590665,-0.24420799314975739,-0.06583999842405319,9.998148918151855,-0.029044000431895256,0.01785299926996231,0.0023980000987648964,-22.200000762939453,13.199999809265137,34.79999923706055
1638389570.5483334,1638389570564492339,-0.15562300384044647,-0.21547700464725494,9.923929214477539,-0.022115999832749367,0.016520999372005463,0.01039199996739626,-22.80000114440918,10.800000190734863,34.79999923706055
1638389570.5692472,1638389570584770430,-0.22266000509262085,0.09935899823904037,9.975404739379883,-0.024248000234365463,0.017319999635219574,-0.0037299999967217445,-22.80000114440918,10.800000190734863,34.79999923706055
1638389570.5885053,1638389570604492233,-0.4632759988307953,-0.13168099522590637,9.945476531982422,-0.026913000270724297,0.01785299926996231,0.003464000066742301,-22.80000114440918,10.800000190734863,34.79999923706055
1638389570.6096613,1638389570625808475,-0.3734939992427826,-0.1460459977388382,9.98976993560791,-0.02931099943816662,0.01945200003683567,0.006928000133484602,-22.80000114440918,10.800000190734863,34.79999923706055
1638389570.6435585,1638389570659564097,-0.28850001096725464,-0.016759000718593597,9.9694185256958,-0.028245000168681145,0.017319999635219574,0.001598999951966107,-22.80000114440918,10.800000190734863,34.79999923706055
1638389570.6500547,1638389570666255650,-0.3651140034198761,-0.08020500093698502,9.941885948181152,-0.02851100079715252,0.018118999898433685,0.0055959997698664665,-24.0,11.40000057220459,36.599998474121094
1638389570.670512,1638389570686454472,-0.34237000346183777,-0.09457100182771683,10.030470848083496,-0.02931099943816662,0.01785299926996231,0.004796000197529793,-24.0,11.40000057220459,36.599998474121094
1638389570.6898081,1638389570705914667,-0.31363898515701294,-0.03471599891781807,9.95864486694336,-0.02877799980342388,0.018651999533176422,0.0039969999343156815,-24.0,11.40000057220459,36.599998474121094
1638389570.7091982,1638389570725310280,-0.36870598793029785,-0.09935899823904037,9.951462745666504,-0.02877799980342388,0.01785299926996231,0.004263000097125769,-24.0,11.40000057220459,36.599998474121094
1638389570.743396,1638389570759556097,-0.32920199632644653,-0.09576799720525742,9.9694185256958,-0.02877799980342388,0.01785299926996231,0.003464000066742301,-24.0,11.40000057220459,36.599998474121094
1638389570.7494593,1638389570765640582,-0.3483549952507019,-0.045490000396966934,9.947871208190918,-0.02797899954020977,0.018919000402092934,0.002930999966338277,-22.5,11.100000381469727,35.70000076293945
1638389570.76959,1638389570785765291,-0.3495520055294037,-0.09217599779367447,9.961039543151855,-0.02851100079715252,0.017587000504136086,0.0037299999967217445,-22.5,11.100000381469727,35.70000076293945
1638389570.7946346,1638389570810523792,-0.3088510036468506,-0.09097900241613388,9.974207878112793,-0.029044000431895256,0.017587000504136086,0.0039969999343156815,-22.5,11.100000381469727,35.70000076293945
1638389570.808352,1638389570824512351,-0.3507489860057831,-0.09935899823904037,9.921534538269043,-0.02851100079715252,0.018118999898433685,0.003464000066742301,-22.5,11.100000381469727,35.70000076293945
1638389570.8623643,1638389570877893320,-0.3734939992427826,-0.061051998287439346,9.998148918151855,-0.028245000168681145,0.018118999898433685,0.004263000097125769,-22.80000114440918,11.40000057220459,35.400001525878906
1638389570.8691492,1638389570885283605,-0.34476399421691895,-0.10893599689006805,9.940689086914062,-0.02877799980342388,0.018651999533176422,0.0037299999967217445,-22.80000114440918,11.40000057220459,35.400001525878906
1638389570.8894773,1638389570905660652,-0.33877798914909363,-0.10175299644470215,10.000543594360352,-0.02851100079715252,0.018651999533176422,0.0037299999967217445,-22.80000114440918,11.40000057220459,35.400001525878906
1638389570.9085362,1638389570924710805,-0.3232159912586212,-0.08259999752044678,9.945476531982422,-0.028245000168681145,0.017319999635219574,0.004796000197529793,-22.80000114440918,11.40000057220459,35.400001525878906
1638389570.9459987,1638389570961552756,-0.33518698811531067,-0.07900799810886383,9.945476531982422,-0.02931099943816662,0.01785299926996231,0.004263000097125769,-22.80000114440918,11.40000057220459,35.400001525878906
1638389570.9492106,1638389570965408390,-0.34237000346183777,-0.09097900241613388,9.984981536865234,-0.02851100079715252,0.01785299926996231,0.004530000034719706,-22.80000114440918,11.40000057220459,34.79999923706055
1638389570.969578,1638389570985714449,-0.3663119971752167,-0.0730229988694191,10.011317253112793,-0.02851100079715252,0.018651999533176422,0.004263000097125769,-22.80000114440918,11.40000057220459,34.79999923706055
1638389570.9937975,1638389571005539166,-0.3507489860057831,-0.09576799720525742,9.95625114440918,-0.02851100079715252,0.018651999533176422,0.0037299999967217445,-22.80000114440918,11.40000057220459,34.79999923706055
1638389571.0090573,1638389571024955199,-0.3399749994277954,-0.07541699707508087,9.98976993560791,-0.029044000431895256,0.018386000767350197,0.004530000034719706,-22.80000114440918,11.40000057220459,34.79999923706055
1638389571.05794,1638389571074035141,-0.36990299820899963,-0.1137240007519722,9.947871208190918,-0.028245000168681145,0.018651999533176422,0.003464000066742301,-21.600000381469727,10.800000190734863,34.79999923706055
1638389571.0690002,1638389571085217523,-0.36750900745391846,-0.08619099855422974,10.0496244430542,-0.028245000168681145,0.017319999635219574,0.0039969999343156815,-21.600000381469727,10.800000190734863,34.79999923706055
1638389571.0890682,1638389571105232448,-0.32800400257110596,-0.08020500093698502,9.981389999389648,-0.02797899954020977,0.017319999635219574,0.0037299999967217445,-21.600000381469727,10.800000190734863,34.79999923706055
1638389571.1098342,1638389571124449997,-0.33877798914909363,-0.10175299644470215,9.95744800567627,-0.02851100079715252,0.01785299926996231,0.0039969999343156815,-21.600000381469727,10.800000190734863,34.79999923706055
1638389571.1605067,1638389571176477835,-0.3711000084877014,-0.07781100273132324,9.963433265686035,-0.029044000431895256,0.017319999635219574,0.003197999903932214,-23.100000381469727,11.699999809265137,34.5
1638389571.1709487,1638389571187027472,-0.33638399839401245,-0.08619099855422974,9.994558334350586,-0.02877799980342388,0.01785299926996231,0.0039969999343156815,-23.100000381469727,11.699999809265137,34.5
1638389571.1906612,1638389571206648606,-0.3411720097064972,-0.08379700034856796,9.951462745666504,-0.02851100079715252,0.018118999898433685,0.003464000066742301,-23.100000381469727,11.699999809265137,34.5
1638389571.2099006,1638389571225902508,-0.3495520055294037,-0.06703700125217438,9.970616340637207,-0.02851100079715252,0.01785299926996231,0.0037299999967217445,-23.100000381469727,11.699999809265137,34.5
1638389571.2579277,1638389571273718991,-0.3806770145893097,-0.09935899823904037,9.984981536865234,-0.02797899954020977,0.017319999635219574,0.0037299999967217445,-22.80000114440918,10.200000762939453,33.60000228881836
1638389571.2725015,1638389571285409069,-0.36152300238609314,-0.08020500093698502,9.998148918151855,-0.02877799980342388,0.017587000504136086,0.0037299999967217445,-22.80000114440918,10.200000762939453,33.60000228881836
1638389571.2890484,1638389571305035410,-0.36152300238609314,-0.06224900111556053,9.994558334350586,-0.028245000168681145,0.017319999635219574,0.0037299999967217445,-22.80000114440918,10.200000762939453,33.60000228881836
1638389571.3113866,1638389571326986174,-0.34476399421691895,-0.09217599779367447,9.980193138122559,-0.02877799980342388,0.017319999635219574,0.004263000097125769,-22.80000114440918,10.200000762939453,33.60000228881836
1638389571.344889,1638389571360833624,-0.3411720097064972,-0.08259999752044678,9.95744800567627,-0.02797899954020977,0.016787000000476837,0.0037299999967217445,-22.80000114440918,10.200000762939453,33.60000228881836
1638389571.3511922,1638389571367177323,-0.36032599210739136,-0.08738800138235092,9.945476531982422,-0.028245000168681145,0.018919000402092934,0.0039969999343156815,-22.80000114440918,10.800000190734863,35.400001525878906
1638389571.3714268,1638389571387602968,-0.3459610044956207,-0.11492100358009338,10.012514114379883,-0.02851100079715252,0.018651999533176422,0.004263000097125769,-22.80000114440918,10.800000190734863,35.400001525878906
1638389571.3904502,1638389571406544378,-0.36990299820899963,-0.09576799720525742,9.95744800567627,-0.02877799980342388,0.018118999898433685,0.004796000197529793,-22.80000114440918,10.800000190734863,35.400001525878906
1638389571.4103005,1638389571426307330,-0.3627200126647949,-0.07182600349187851,9.970616340637207,-0.02877799980342388,0.01785299926996231,0.0039969999343156815,-22.80000114440918,10.800000190734863,35.400001525878906
1638389571.4579897,1638389571474073867,-0.36152300238609314,-0.10414700210094452,9.952659606933594,-0.02851100079715252,0.016787000000476837,0.004530000034719706,-24.0,10.800000190734863,33.60000228881836
1638389571.4695354,1638389571485290987,-0.3495520055294037,-0.0897819995880127,10.013711929321289,-0.02797899954020977,0.018651999533176422,0.003464000066742301,-24.0,10.800000190734863,33.60000228881836
1638389571.4914646,1638389571506949935,-0.33758100867271423,-0.07900799810886383,9.982586860656738,-0.02851100079715252,0.01785299926996231,0.004263000097125769,-24.0,10.800000190734863,33.60000228881836
1638389571.5101712,1638389571526239149,-0.34476399421691895,-0.08379700034856796,9.939491271972656,-0.02851100079715252,0.01785299926996231,0.004796000197529793,-24.0,10.800000190734863,33.60000228881836
1638389571.5580125,1638389571574102454,-0.3711000084877014,-0.08738800138235092,9.970616340637207,-0.02877799980342388,0.018118999898433685,0.004263000097125769,-23.100000381469727,11.699999809265137,35.10000228881836
1638389571.5706823,1638389571585327178,-0.3627200126647949,-0.08379700034856796,9.959842681884766,-0.02851100079715252,0.018118999898433685,0.0037299999967217445,-23.100000381469727,11.699999809265137,35.10000228881836
1638389571.591022,1638389571607042166,-0.3543410003185272,-0.0969650000333786,9.965827941894531,-0.028245000168681145,0.018118999898433685,0.003464000066742301,-23.100000381469727,11.699999809265137,35.10000228881836
1638389571.610799,1638389571626936105,-0.3639169931411743,-0.09576799720525742,9.937097549438477,-0.029044000431895256,0.01785299926996231,0.0037299999967217445,-23.100000381469727,11.699999809265137,35.10000228881836
1638389571.6448092,1638389571660715589,-0.3483549952507019,-0.07062900066375732,9.999346733093262,-0.029044000431895256,0.018651999533176422,0.002930999966338277,-23.100000381469727,11.699999809265137,35.10000228881836
1638389571.6507854,1638389571666838251,-0.3663119971752167,-0.07182600349187851,9.943082809448242,-0.02851100079715252,0.018386000767350197,0.004530000034719706,-23.700000762939453,10.5,34.5
1638389571.6711838,1638389571687234626,-0.36152300238609314,-0.10534399747848511,10.02687931060791,-0.029044000431895256,0.018386000767350197,0.0039969999343156815,-23.700000762939453,10.5,34.5
1638389571.6913059,1638389571706777428,-0.37708500027656555,-0.09097900241613388,9.978996276855469,-0.02877799980342388,0.01785299926996231,0.0039969999343156815,-23.700000762939453,10.5,34.5
1638389571.709969,1638389571725959874,-0.35912901163101196,-0.08499400317668915,9.927520751953125,-0.028245000168681145,0.01705400086939335,0.0039969999343156815,-23.700000762939453,10.5,34.5
1638389571.7448103,1638389571760292260,-0.3339900076389313,-0.08858499675989151,9.941885948181152,-0.02877799980342388,0.017587000504136086,0.004263000097125769,-23.700000762939453,10.5,34.5
1638389571.750352,1638389571766389975,-0.36032599210739136,-0.05386900156736374,9.978996276855469,-0.028245000168681145,0.018651999533176422,0.0039969999343156815,-23.399999618530273,11.40000057220459,33.0
1638389571.7708948,1638389571786785204,-0.34476399421691895,-0.12689200043678284,9.977798461914062,-0.02877799980342388,0.017587000504136086,0.0037299999967217445,-23.399999618530273,11.40000057220459,33.0
1638389571.7900634,1638389571806176082,-0.3459610044956207,-0.07900799810886383,9.981389999389648,-0.02931099943816662,0.018118999898433685,0.004263000097125769,-23.399999618530273,11.40000057220459,33.0
1638389571.8097985,1638389571825755237,-0.35912901163101196,-0.06703700125217438,10.007725715637207,-0.02851100079715252,0.017587000504136086,0.003464000066742301,-23.399999618530273,11.40000057220459,33.0
1638389571.8585396,1638389571874355712,-0.3639169931411743,-0.09576799720525742,9.963433265686035,-0.02877799980342388,0.018386000767350197,0.004263000097125769,-23.700000762939453,11.699999809265137,33.900001525878906
1638389571.8710558,1638389571887155241,-0.3806770145893097,-0.1137240007519722,9.93350601196289,-0.02851100079715252,0.018386000767350197,0.0039969999343156815,-23.700000762939453,11.699999809265137,33.900001525878906
1638389571.8905742,1638389571906269668,-0.34476399421691895,-0.10175299644470215,9.995755195617676,-0.02851100079715252,0.018118999898433685,0.004263000097125769,-23.700000762939453,11.699999809265137,33.900001525878906
1638389571.9096735,1638389571925806584,-0.3471580147743225,-0.07900799810886383,9.996952056884766,-0.02877799980342388,0.017587000504136086,0.003464000066742301,-23.700000762939453,11.699999809265137,33.900001525878906
1638389571.944592,1638389571960498910,-0.3303990066051483,-0.09457100182771683,9.978996276855469,-0.02851100079715252,0.01705400086939335,0.0037299999967217445,-23.700000762939453,11.699999809265137,33.900001525878906
1638389571.9524596,1638389571968335541,-0.3483549952507019,-0.09576799720525742,9.947871208190918,-0.02931099943816662,0.01785299926996231,0.0039969999343156815,-23.399999618530273,12.0,35.400001525878906
1638389571.9712706,1638389571987132996,-0.35194599628448486,-0.11133000254631042,9.974207878112793,-0.02851100079715252,0.018386000767350197,0.003197999903932214,-23.399999618530273,12.0,35.400001525878906
1638389571.9961345,1638389572006342317,-0.3399749994277954,-0.10654199868440628,9.98976993560791,-0.029044000431895256,0.01918499916791916,0.0039969999343156815,-23.399999618530273,12.0,35.400001525878906
1638389572.0129309,1638389572029023120,-0.33638399839401245,-0.12210399657487869,9.971813201904297,-0.02851100079715252,0.018651999533176422,0.0039969999343156815,-23.399999618530273,12.0,35.400001525878906
1638389572.0578177,1638389572073893957,-0.3339900076389313,-0.0969650000333786,9.940689086914062,-0.029044000431895256,0.01785299926996231,0.003197999903932214,-22.5,11.100000381469727,35.10000228881836
1638389572.0710921,1638389572087107230,-0.36152300238609314,-0.08499400317668915,10.011317253112793,-0.029044000431895256,0.018919000402092934,0.004263000097125769,-22.5,11.100000381469727,35.10000228881836
1638389572.0903082,1638389572106376085,-0.3507489860057831,-0.07661399990320206,9.950265884399414,-0.02797899954020977,0.01918499916791916,0.0039969999343156815,-22.5,11.100000381469727,35.10000228881836
1638389572.1118526,1638389572128013945,-0.3268069922924042,-0.10175299644470215,9.945476531982422,-0.029044000431895256,0.018118999898433685,0.004263000097125769,-22.5,11.100000381469727,35.10000228881836
1638389572.1579475,1638389572173879185,-0.36032599210739136,-0.08738800138235092,9.963433265686035,-0.02851100079715252,0.018118999898433685,0.0037299999967217445,-22.5,12.300000190734863,34.5
1638389572.1708872,1638389572186926473,-0.3411720097064972,-0.05985499918460846,9.996952056884766,-0.028245000168681145,0.018651999533176422,0.003464000066742301,-22.5,12.300000190734863,34.5
1638389572.1903949,1638389572206416520,-0.33877798914909363,-0.09576799720525742,9.994558334350586,-0.028245000168681145,0.01785299926996231,0.0039969999343156815,-22.5,12.300000190734863,34.5
1638389572.2119095,1638389572227948497,-0.35194599628448486,-0.0730229988694191,9.941885948181152,-0.028245000168681145,0.018118999898433685,0.003464000066742301,-22.5,12.300000190734863,34.5
1638389572.2457566,1638389572261841997,-0.3495520055294037,-0.07661399990320206,9.95744800567627,-0.02851100079715252,0.018651999533176422,0.0037299999967217445,-22.5,12.300000190734863,34.5
1638389572.252748,1638389572268822765,-0.34237000346183777,-0.0969650000333786,9.977798461914062,-0.029044000431895256,0.017319999635219574,0.0039969999343156815,-24.0,12.0,34.19999694824219
1638389572.270339,1638389572286430983,-0.32920199632644653,-0.08619099855422974,10.006528854370117,-0.02877799980342388,0.018118999898433685,0.004263000097125769,-24.0,12.0,34.19999694824219
1638389572.291984,1638389572308093843,-0.3303990066051483,-0.10654199868440628,9.92273235321045,-0.02877799980342388,0.018386000767350197,0.004530000034719706,-24.0,12.0,34.19999694824219
1638389572.312375,1638389572328175907,-0.3339900076389313,-0.09217599779367447,10.010120391845703,-0.02851100079715252,0.01785299926996231,0.0037299999967217445,-24.0,12.0,34.19999694824219
1638389572.34361,1638389572359661341,-0.3495520055294037,-0.05865800008177757,9.971813201904297,-0.028245000168681145,0.018386000767350197,0.0039969999343156815,-24.0,12.0,34.19999694824219
1638389572.3521237,1638389572368217383,-0.3651140034198761,-0.09097900241613388,9.9694185256958,-0.02877799980342388,0.018118999898433685,0.0037299999967217445,-23.399999618530273,11.40000057220459,33.60000228881836
1638389572.37206,1638389572388087109,-0.3663119971752167,-0.11731500178575516,10.005331993103027,-0.02851100079715252,0.018919000402092934,0.0037299999967217445,-23.399999618530273,11.40000057220459,33.60000228881836
1638389572.3926232,1638389572408733847,-0.3627200126647949,-0.07661399990320206,9.965827941894531,-0.02797899954020977,0.017587000504136086,0.003197999903932214,-23.399999618530273,11.40000057220459,33.60000228881836
1638389572.410925,1638389572426806272,-0.3459610044956207,-0.06583999842405319,9.975404739379883,-0.02851100079715252,0.01705400086939335,0.0037299999967217445,-23.399999618530273,11.40000057220459,33.60000228881836
1638389572.456763,1638389572472866091,-0.34476399421691895,-0.06703700125217438,9.990966796875,-0.027712000533938408,0.01785299926996231,0.0037299999967217445,-29.399999618530273,16.19999885559082,34.79999923706055
1638389572.472654,1638389572488468369,-0.3315959870815277,-0.09576799720525742,9.994558334350586,-0.02851100079715252,0.017587000504136086,0.0039969999343156815,-29.399999618530273,16.19999885559082,34.79999923706055
1638389572.4920504,1638389572507826597,-0.3471580147743225,-0.08379700034856796,9.995755195617676,-0.028245000168681145,0.017587000504136086,0.0037299999967217445,-29.399999618530273,16.19999885559082,34.79999923706055
1638389572.514848,1638389572527181700,-0.3339900076389313,-0.09337399899959564,9.953856468200684,-0.02851100079715252,0.018651999533176422,0.0039969999343156815,-29.399999618530273,16.19999885559082,34.79999923706055
1638389572.5435872,1638389572559652734,-0.3806770145893097,-0.0897819995880127,9.927520751953125,-0.028245000168681145,0.018118999898433685,0.004530000034719706,-29.399999618530273,16.19999885559082,34.79999923706055
1638389572.5522857,1638389572568434760,-0.3411720097064972,-0.10294999927282333,9.961039543151855,-0.02851100079715252,0.017319999635219574,0.004530000034719706,-29.700000762939453,18.299999237060547,33.900001525878906
1638389572.5722034,1638389572588280737,-0.36152300238609314,-0.09816200286149979,9.987375259399414,-0.02877799980342388,0.018919000402092934,0.0037299999967217445,-29.700000762939453,18.299999237060547,33.900001525878906
1638389572.5915725,1638389572607584695,-0.34237000346183777,-0.08379700034856796,9.987375259399414,-0.02851100079715252,0.01785299926996231,0.004263000097125769,-29.700000762939453,18.299999237060547,33.900001525878906
1638389572.6110113,1638389572626990005,-0.35194599628448486,-0.09097900241613388,9.939491271972656,-0.02877799980342388,0.017319999635219574,0.0039969999343156815,-29.700000762939453,18.299999237060547,33.900001525878906
1638389572.6568525,1638389572672840141,-0.33758100867271423,-0.1137240007519722,10.014908790588379,-0.02851100079715252,0.018651999533176422,0.004263000097125769,-32.10000228881836,18.299999237060547,32.70000076293945
1638389572.6721847,1638389572688261538,-0.31842800974845886,-0.07422000169754028,9.953856468200684,-0.02851100079715252,0.01785299926996231,0.004263000097125769,-32.10000228881836,18.299999237060547,32.70000076293945
1638389572.6918657,1638389572707666327,-0.33638399839401245,-0.05865800008177757,9.949068069458008,-0.02797899954020977,0.01785299926996231,0.004263000097125769,-32.10000228881836,18.299999237060547,32.70000076293945
1638389572.7110765,1638389572726933463,-0.35314300656318665,-0.10654199868440628,9.944279670715332,-0.028245000168681145,0.01785299926996231,0.0037299999967217445,-32.10000228881836,18.299999237060547,32.70000076293945
1638389572.743097,1638389572759176118,-0.36152300238609314,-0.07781100273132324,9.974207878112793,-0.02851100079715252,0.01785299926996231,0.004796000197529793,-32.10000228881836,18.299999237060547,32.70000076293945
1638389572.7520716,1638389572768152514,-0.36870598793029785,-0.11013299971818924,9.946674346923828,-0.02877799980342388,0.018118999898433685,0.0026650000363588333,-32.70000076293945,18.299999237060547,32.70000076293945
1638389572.7717268,1638389572787877973,-0.33877798914909363,-0.12210399657487869,9.994558334350586,-0.02877799980342388,0.01785299926996231,0.0037299999967217445,-32.70000076293945,18.299999237060547,32.70000076293945
1638389572.7912748,1638389572807215316,-0.31124499440193176,-0.08738800138235092,9.973010063171387,-0.02877799980342388,0.01705400086939335,0.003464000066742301,-32.70000076293945,18.299999237060547,32.70000076293945
1638389572.8152072,1638389572831091403,-0.33877798914909363,-0.0969650000333786,9.984981536865234,-0.02877799980342388,0.017587000504136086,0.004530000034719706,-32.70000076293945,18.299999237060547,32.70000076293945
1638389572.8566377,1638389572872737162,-0.36990299820899963,-0.0646430030465126,9.962236404418945,-0.029044000431895256,0.017587000504136086,0.003197999903932214,-32.39999771118164,17.399999618530273,31.799999237060547
1638389572.8726199,1638389572888284545,-0.36750900745391846,-0.09576799720525742,9.998148918151855,-0.02931099943816662,0.017319999635219574,0.0037299999967217445,-32.39999771118164,17.399999618530273,31.799999237060547
1638389572.891601,1638389572907651418,-0.3543410003185272,-0.08020500093698502,9.967024803161621,-0.02877799980342388,0.017587000504136086,0.004263000097125769,-32.39999771118164,17.399999618530273,31.799999237060547
1638389572.9132311,1638389572929277195,-0.3471580147743225,-0.08619099855422974,9.95505428314209,-0.02877799980342388,0.017319999635219574,0.003464000066742301,-32.39999771118164,17.399999618530273,31.799999237060547
1638389572.956947,1638389572972919417,-0.35912901163101196,-0.10414700210094452,9.983783721923828,-0.02851100079715252,0.018118999898433685,0.0037299999967217445,-33.29999923706055,20.100000381469727,32.70000076293945
1638389572.972423,1638389572988137068,-0.3627200126647949,-0.09097900241613388,10.013711929321289,-0.02931099943816662,0.018651999533176422,0.0039969999343156815,-33.29999923706055,20.100000381469727,32.70000076293945
1638389572.9943323,1638389573007765602,-0.3459610044956207,-0.10654199868440628,9.977798461914062,-0.02851100079715252,0.017587000504136086,0.003464000066742301,-33.29999923706055,20.100000381469727,32.70000076293945
1638389573.013339,1638389573029431435,-0.35912901163101196,-0.07900799810886383,9.965827941894531,-0.02797899954020977,0.017587000504136086,0.0037299999967217445,-33.29999923706055,20.100000381469727,32.70000076293945
1638389573.0439088,1638389573059839975,-0.355538010597229,-0.09097900241613388,9.968221664428711,-0.02797899954020977,0.016787000000476837,0.0039969999343156815,-33.29999923706055,20.100000381469727,32.70000076293945
1638389573.052445,1638389573068290137,-0.35314300656318665,-0.07661399990320206,9.99216365814209,-0.028245000168681145,0.018386000767350197,0.002930999966338277,-34.19999694824219,20.400001525878906,31.799999237060547
1638389573.0721676,1638389573088239918,-0.3495520055294037,-0.0897819995880127,9.983783721923828,-0.028245000168681145,0.018386000767350197,0.003464000066742301,-34.19999694824219,20.400001525878906,31.799999237060547
1638389573.0954013,1638389573107685701,-0.3579320013523102,-0.08858499675989151,9.950265884399414,-0.027712000533938408,0.018651999533176422,0.0037299999967217445,-34.19999694824219,20.400001525878906,31.799999237060547
1638389573.1133118,1638389573129218933,-0.34476399421691895,-0.09576799720525742,9.959842681884766,-0.02851100079715252,0.018386000767350197,0.003197999903932214,-34.19999694824219,20.400001525878906,31.799999237060547
1638389573.1437914,1638389573159891477,-0.30286499857902527,-0.0969650000333786,9.925126075744629,-0.027712000533938408,0.018651999533176422,0.0037299999967217445,-34.19999694824219,20.400001525878906,31.799999237060547
1638389573.1533394,1638389573168223569,-0.36750900745391846,-0.0897819995880127,10.006528854370117,-0.02851100079715252,0.01785299926996231,0.0037299999967217445,-35.70000076293945,21.30000114440918,31.5
1638389573.171915,1638389573187933668,-0.3483549952507019,-0.09935899823904037,9.951462745666504,-0.02877799980342388,0.01785299926996231,0.004263000097125769,-35.70000076293945,21.30000114440918,31.5
1638389573.1963792,1638389573209462994,-0.3339900076389313,-0.07900799810886383,9.976601600646973,-0.02851100079715252,0.018118999898433685,0.003464000066742301,-35.70000076293945,21.30000114440918,31.5
1638389573.2128062,1638389573228804196,-0.33877798914909363,-0.08020500093698502,9.964631080627441,-0.02851100079715252,0.018118999898433685,0.003197999903932214,-35.70000076293945,21.30000114440918,31.5
1638389573.2564933,1638389573272487469,-0.36032599210739136,-0.11492100358009338,9.968221664428711,-0.02877799980342388,0.018651999533176422,0.0039969999343156815,-36.0,21.600000381469727,33.0
1638389573.2719135,1638389573287856944,-0.36870598793029785,-0.08379700034856796,10.014908790588379,-0.029044000431895256,0.018118999898433685,0.003464000066742301,-36.0,21.600000381469727,33.0
1638389573.2933867,1638389573309341167,-0.32082200050354004,-0.07062900066375732,9.996952056884766,-0.02877799980342388,0.01785299926996231,0.004530000034719706,-36.0,21.600000381469727,33.0
1638389573.3128479,1638389573328899343,-0.36032599210739136,-0.06823399662971497,9.949068069458008,-0.02877799980342388,0.018651999533176422,0.0039969999343156815,-36.0,21.600000381469727,33.0
1638389573.4121916,1638389573361378979,-0.3902530074119568,-0.08140300214290619,9.986178398132324,-0.02877799980342388,0.01785299926996231,0.00506300013512373,-36.0,21.600000381469727,33.0
1638389573.414914,1638389573369739559,-0.3902530074119568,-0.07900799810886383,9.951462745666504,-0.02877799980342388,0.018118999898433685,0.0039969999343156815,-34.5,21.30000114440918,30.899999618530273
1638389573.4149666,1638389573389675018,-0.35194599628448486,-0.06224900111556053,10.018500328063965,-0.027712000533938408,0.017319999635219574,0.004530000034719706,-34.5,21.30000114440918,30.899999618530273
1638389573.415004,1638389573414695927,-0.3459610044956207,-0.08738800138235092,9.964631080627441,-0.028245000168681145,0.017587000504136086,0.003464000066742301,-34.5,21.30000114440918,30.899999618530273
1638389573.4150083,1638389573428757724,-0.3627200126647949,-0.08499400317668915,10.006528854370117,-0.029044000431895256,0.018386000767350197,0.003464000066742301,-34.5,21.30000114440918,30.899999618530273
1638389573.4581735,1638389573474185487,-0.33638399839401245,-0.09097900241613388,9.981389999389648,-0.029577000066637993,0.018386000767350197,0.004263000097125769,-36.0,22.200000762939453,31.799999237060547
1638389573.4736779,1638389573489530430,-0.35912901163101196,-0.07661399990320206,9.994558334350586,-0.02851100079715252,0.017319999635219574,0.0037299999967217445,-36.0,22.200000762939453,31.799999237060547
1638389573.492796,1638389573508722834,-0.3794800043106079,-0.10534399747848511,9.964631080627441,-0.029044000431895256,0.018118999898433685,0.004530000034719706,-36.0,22.200000762939453,31.799999237060547
1638389573.5123308,1638389573528199813,-0.35314300656318665,-0.08379700034856796,9.982586860656738,-0.028245000168681145,0.017587000504136086,0.0037299999967217445,-36.0,22.200000762939453,31.799999237060547
1638389573.5582232,1638389573573829706,-0.3627200126647949,-0.09337399899959564,9.976601600646973,-0.02877799980342388,0.01785299926996231,0.0037299999967217445,-36.0,21.0,31.799999237060547
1638389573.5737195,1638389573589352771,-0.3399749994277954,-0.07062900066375732,9.987375259399414,-0.028245000168681145,0.018118999898433685,0.002930999966338277,-36.0,21.0,31.799999237060547
1638389573.5927386,1638389573608686212,-0.3411720097064972,-0.09337399899959564,9.95505428314209,-0.028245000168681145,0.018118999898433685,0.003464000066742301,-36.0,21.0,31.799999237060547
1638389573.661426,1638389573631026978,-0.3339900076389313,-0.07781100273132324,9.9694185256958,-0.02851100079715252,0.018118999898433685,0.0039969999343156815,-36.0,21.0,31.799999237060547
1638389573.6656156,1638389573673874542,-0.3543410003185272,-0.10534399747848511,9.963433265686035,-0.02851100079715252,0.01785299926996231,0.004263000097125769,-35.10000228881836,21.899999618530273,33.29999923706055
1638389573.6765954,1638389573689461303,-0.355538010597229,-0.07062900066375732,9.965827941894531,-0.02931099943816662,0.018118999898433685,0.00532899983227253,-35.10000228881836,21.899999618530273,33.29999923706055
1638389573.6930134,1638389573708913856,-0.3543410003185272,-0.08738800138235092,9.998148918151855,-0.02851100079715252,0.018118999898433685,0.004796000197529793,-35.10000228881836,21.899999618530273,33.29999923706055
1638389573.7145417,1638389573730576096,-0.33518698811531067,-0.039503999054431915,9.987375259399414,-0.02877799980342388,0.018118999898433685,0.003464000066742301,-35.10000228881836,21.899999618530273,33.29999923706055
1638389573.7474859,1638389573763279164,-0.48123300075531006,-0.20590099692344666,9.662961959838867,-0.029044000431895256,0.018919000402092934,0.0037299999967217445,-35.10000228881836,21.899999618530273,33.29999923706055
1638389573.7536979,1638389573769643907,-2.219417095184326,-0.05985499918460846,10.341715812683105,-0.01465499959886074,0.04156799986958504,0.0039969999343156815,-36.29999923706055,21.899999618530273,31.5
1638389573.7733836,1638389573789344944,-0.5255249738693237,0.0071829999797046185,10.012514114379883,-0.02558000013232231,0.004530000034719706,0.0010659999679774046,-36.29999923706055,21.899999618530273,31.5
1638389573.794949,1638389573810840938,-0.052671998739242554,-0.22026599943637848,10.037653923034668,-0.024514999240636826,0.010924999602138996,-0.0010659999679774046,-36.29999923706055,21.899999618530273,31.5
1638389573.8145306,1638389573830102402,0.45010799169540405,-0.1364690065383911,9.82935905456543,-0.030910000205039978,0.003197999903932214,-0.01039199996739626,-36.29999923706055,21.899999618530273,31.5
1638389573.8582287,1638389573874218789,-1.314411997795105,0.08738800138235092,10.342912673950195,-0.003197999903932214,0.037571001797914505,-0.01465499959886074,-40.5,23.700000762939453,29.100000381469727
1638389573.8737664,1638389573889753989,0.22266000509262085,0.0969650000333786,10.11546516418457,-0.007993999868631363,-0.027712000533938408,-0.009859000332653522,-40.5,23.700000762939453,29.100000381469727
1638389573.895689,1638389573911731534,0.39264801144599915,0.15203100442886353,10.013711929321289,-0.015188000164926052,-0.012524000369012356,-0.006395000033080578,-40.5,23.700000762939453,29.100000381469727
1638389573.9148104,1638389573930792534,0.36870598793029785,-0.10534399747848511,9.780278205871582,-0.03463999927043915,-0.008259999565780163,-0.0037299999967217445,-40.5,23.700000762939453,29.100000381469727
1638389573.9465473,1638389573961906005,0.30406200885772705,-0.1687909960746765,9.928717613220215,-0.025047000497579575,0.007993999868631363,0.004530000034719706,-40.5,23.700000762939453,29.100000381469727
1638389573.956121,1638389573971943055,-3.0394279956817627,0.06583999842405319,9.656976699829102,-0.01065799966454506,0.04743000119924545,0.006128999870270491,-39.29999923706055,20.69999885559082,30.299999237060547
1638389573.9772816,1638389573990284073,-2.946053981781006,0.14844000339508057,11.021666526794434,0.002930999966338277,0.07967200130224228,-0.004530000034719706,-39.29999923706055,20.69999885559082,30.299999237060547
1638389573.9993331,1638389574014008922,-1.6507960557937622,-0.0071829999797046185,9.660568237304688,-0.004796000197529793,-0.017587000504136086,-0.0005329999839887023,-39.29999923706055,20.69999885559082,30.299999237060547
1638389574.0142455,1638389574029830056,-0.6392499804496765,0.005985000170767307,10.04723072052002,-0.021849999204277992,-0.006128999870270491,-0.0018649999983608723,-39.29999923706055,20.69999885559082,30.299999237060547
1638389574.0579867,1638389574073905987,-1.2653310298919678,-0.16041100025177002,9.496565818786621,-0.029044000431895256,0.01705400086939335,-0.006395000033080578,-40.5,24.299999237060547,26.100000381469727
1638389574.0736792,1638389574089653790,-1.9021860361099243,-0.4141950011253357,9.9323091506958,-0.04529900103807449,0.0325080007314682,-0.01705400086939335,-40.5,24.299999237060547,26.100000381469727
1638389574.0954065,1638389574111399210,-2.451653003692627,-0.47524699568748474,9.512127876281738,-0.04583200067281723,0.03490699827671051,-0.02717900089919567,-40.5,24.299999237060547,26.100000381469727
1638389574.1146784,1638389574130516620,-2.064990997314453,0.4297580122947693,9.750349998474121,-0.06368499994277954,0.02398199960589409,-0.03623899817466736,-40.5,24.299999237060547,26.100000381469727
1638389574.1461315,1638389574161358647,-1.0007729530334473,0.5410879850387573,8.596349716186523,-0.16280899941921234,0.0495619997382164,-0.008259999565780163,-40.5,24.299999237060547,26.100000381469727
1638389574.1562073,1638389574172012717,-2.454047918319702,-1.7130450010299683,11.101872444152832,-0.1982479989528656,0.1742659956216812,-0.01119100023061037,-35.70000076293945,14.699999809265137,32.10000228881836
1638389574.1737359,1638389574189706410,-0.6272789835929871,0.15562300384044647,10.394388198852539,0.013856000266969204,-0.006928000133484602,-0.09779199957847595,-35.70000076293945,14.699999809265137,32.10000228881836
1638389574.1973197,1638389574213190591,-1.2126590013504028,0.10175299644470215,9.671341896057129,-0.02238300070166588,0.018919000402092934,-0.07540900260210037,-35.70000076293945,14.699999809265137,32.10000228881836
1638389574.2152576,1638389574230679446,-0.12689200043678284,-0.2765290141105652,9.442696571350098,-0.05222700163722038,-0.012790000066161156,-0.04476600140333176,-35.70000076293945,14.699999809265137,32.10000228881836
1638389574.2452312,1638389574261210179,-0.3627200126647949,0.30286499857902527,10.68288803100586,-0.023448999971151352,0.01705400086939335,-0.07221099734306335,-35.70000076293945,14.699999809265137,32.10000228881836
1638389574.2565296,1638389574272167522,-1.7166359424591064,-0.2274480015039444,9.667750358581543,-0.029577000066637993,0.018118999898433685,-0.07647500187158585,-35.70000076293945,8.09999942779541,32.70000076293945
1638389574.2762396,1638389574292199754,-2.3355350494384766,0.07661399990320206,10.534448623657227,-0.004263000097125769,0.035440001636743546,-0.05489100143313408,-35.70000076293945,8.09999942779541,32.70000076293945
1638389574.2956073,1638389574311377944,-0.5746060013771057,-0.03351899981498718,9.6785249710083,-0.035440001636743546,-0.01705400086939335,-0.059953998774290085,-35.70000076293945,8.09999942779541,32.70000076293945
1638389574.314857,1638389574330891438,-3.131603956222534,-0.06344600021839142,10.443469047546387,-0.006928000133484602,0.02158300019800663,-0.07167799770832062,-35.70000076293945,8.09999942779541,32.70000076293945
1638389574.3452365,1638389574361322954,-0.5566499829292297,0.05985499918460846,10.534448623657227,-0.013856000266969204,-0.03437399864196777,-0.0708789974451065,-35.70000076293945,8.09999942779541,32.70000076293945
1638389574.3562727,1638389574372285714,-0.06823399662971497,-0.33758100867271423,9.024909973144531,-0.035172998905181885,-0.07274399697780609,-0.0871329978108406,-33.29999923706055,-6.900000095367432,44.10000228881836
1638389574.3761587,1638389574392249771,-1.405390977859497,1.37785804271698,7.0532917976379395,-0.017319999635219574,0.07460899651050568,-0.08739999681711197,-33.29999923706055,-6.900000095367432,44.10000228881836
1638389574.3954875,1638389574411492750,-0.03351899981498718,-0.6715710163116455,11.379598617553711,-0.11511199921369553,0.1700029969215393,-0.07247799634933472,-33.29999923706055,-6.900000095367432,44.10000228881836
1638389574.41502,1638389574430776406,0.5075690150260925,-0.11851300299167633,10.71880054473877,-0.0005329999839887023,-0.06528300046920776,-0.1196419969201088,-33.29999923706055,-6.900000095367432,44.10000228881836
1638389574.5215724,1638389574461229432,-1.9201430082321167,1.0414739847183228,10.539237022399902,0.022916000336408615,0.05089399963617325,-0.13482999801635742,-33.29999923706055,-6.900000095367432,44.10000228881836
1638389574.5340745,1638389574471805847,-1.38863205909729,-0.3232159912586212,9.273905754089355,-0.07034599781036377,0.06288500130176544,-0.12204000353813171,-32.70000076293945,-16.5,55.5
1638389574.5340912,1638389574491671781,-2.6599481105804443,-0.5566499829292297,10.362066268920898,-0.02105100080370903,0.0418349988758564,-0.12497100234031677,-32.70000076293945,-16.5,55.5
1638389574.5341082,1638389574510994082,-0.6500229835510254,0.0730229988694191,9.945476531982422,0.0039969999343156815,-0.011723999865353107,-0.15694600343704224,-32.70000076293945,-16.5,55.5
1638389574.5341372,1638389574530292061,-1.9991509914398193,0.5722119808197021,10.435089111328125,-0.01945200003683567,0.03650499880313873,-0.14921900629997253,-32.70000076293945,-16.5,55.5
1638389574.5448415,1638389574560857323,0.39384499192237854,0.011970999650657177,9.20926284790039,-0.04476600140333176,0.008527000434696674,-0.14842000603675842,-32.70000076293945,-16.5,55.5
1638389574.5556273,1638389574571567902,-0.3806770145893097,-0.3471580147743225,9.152998924255371,-0.07327699661254883,-0.01039199996739626,-0.150285005569458,-29.100000381469727,-12.899999618530273,59.099998474121094
1638389574.5755024,1638389574591359775,-1.5298889875411987,0.08619099855422974,10.034062385559082,-0.039170000702142715,0.03890400007367134,-0.17559899389743805,-29.100000381469727,-12.899999618530273,59.099998474121094
1638389574.594902,1638389574610702180,-2.3391261100769043,0.14125700294971466,11.263480186462402,-0.018651999533176422,0.053025998175144196,-0.19025400280952454,-29.100000381469727,-12.899999618530273,59.099998474121094
1638389574.6146553,1638389574630359316,0.4129979908466339,0.10175299644470215,9.168561935424805,-0.053025998175144196,-0.03010999970138073,-0.18812300264835358,-29.100000381469727,-12.899999618530273,59.099998474121094
1638389574.6615002,1638389574674348947,-0.21188600361347198,-0.6715710163116455,9.011741638183594,-0.042100999504327774,-0.004530000034719706,-0.15827900171279907,-30.600000381469727,-7.199999809265137,67.80000305175781
1638389574.675987,1638389574691765721,-1.1982940435409546,0.2837119996547699,10.998922348022461,-0.0018649999983608723,0.018386000767350197,-0.18759000301361084,-30.600000381469727,-7.199999809265137,67.80000305175781
1638389574.6951792,1638389574711153072,-0.7074840068817139,-0.011970999650657177,8.210884094238281,-0.00133200001437217,0.013856000266969204,-0.19158700108528137,-30.600000381469727,-7.199999809265137,67.80000305175781
1638389574.714855,1638389574730732502,-0.8200110197067261,-0.1376660019159317,10.788232803344727,-0.004263000097125769,0.0333079993724823,-0.17666499316692352,-30.600000381469727,-7.199999809265137,67.80000305175781
1638389574.7597122,1638389574775049990,-1.663964033126831,0.19632400572299957,10.450652122497559,-0.03437399864196777,0.057022999972105026,-0.21823300421237946,-33.29999923706055,-11.100000381469727,74.0999984741211
1638389574.7767897,1638389574792429420,-0.679951012134552,-0.2813180088996887,9.624655723571777,-0.04130199924111366,0.038371000438928604,-0.2307569980621338,-33.29999923706055,-11.100000381469727,74.0999984741211
1638389574.7959926,1638389574811842813,-1.3479310274124146,0.3327929973602295,10.053215980529785,0.020517999306321144,0.04529900103807449,-0.23048999905586243,-33.29999923706055,-11.100000381469727,74.0999984741211
1638389574.8153086,1638389574831246622,-1.5023560523986816,-0.10773900151252747,10.433892250061035,-0.05116099864244461,0.04583200067281723,-0.21050499379634857,-33.29999923706055,-11.100000381469727,74.0999984741211
1638389574.8574867,1638389574872877299,-1.2677249908447266,0.06583999842405319,10.484170913696289,-0.058354999870061874,0.00506300013512373,-0.24914200603961945,-24.600000381469727,-10.800000190734863,74.4000015258789
1638389574.874966,1638389574890577972,-0.5171459913253784,-0.19153499603271484,9.52290153503418,-0.01438899990171194,0.016787000000476837,-0.26886099576950073,-24.600000381469727,-10.800000190734863,74.4000015258789
1638389574.896456,1638389574912385109,-2.669524908065796,0.5183429718017578,9.562406539916992,0.0418349988758564,0.002930999966338277,-0.22782500088214874,-24.600000381469727,-10.800000190734863,74.4000015258789
1638389574.915873,1638389574931827876,-1.011546015739441,-0.1209070011973381,10.219612121582031,-0.06341800093650818,0.01012600027024746,-0.21503500640392303,-24.600000381469727,-10.800000190734863,74.4000015258789
1638389574.99968,1638389574974216503,-0.1699880063533783,0.4046190083026886,9.965827941894531,0.018386000767350197,-0.007460999768227339,-0.2571359872817993,-27.599998474121094,-6.599999904632568,83.4000015258789
1638389575.0086613,1638389574991388803,-0.31124499440193176,0.0897819995880127,10.110676765441895,-0.01465499959886074,0.0162540003657341,-0.22889100015163422,-27.599998474121094,-6.599999904632568,83.4000015258789
1638389575.0086634,1638389575013093549,-2.503129005432129,0.7422000169754028,10.959417343139648,-0.02851100079715252,0.046098001301288605,-0.23422099649906158,-27.599998474121094,-6.599999904632568,83.4000015258789
1638389575.0166442,1638389575032469499,-0.06823399662971497,0.4680649936199188,10.457834243774414,-0.06341800093650818,-0.02558000013232231,-0.2811180055141449,-27.599998474121094,-6.599999904632568,83.4000015258789
1638389575.059073,1638389575074058729,-0.6560090184211731,0.5638319849967957,10.120253562927246,-0.07567500323057175,-0.055424001067876816,-0.2699260115623474,-19.799999237060547,-6.0,84.5999984741211
1638389575.0755122,1638389575091412018,-1.7178330421447754,0.4357430040836334,10.132224082946777,-0.04743000119924545,-0.035971999168395996,-0.2590020000934601,-19.799999237060547,-6.0,84.5999984741211
1638389575.0972495,1638389575112836462,-1.2497689723968506,-0.40940698981285095,9.994558334350586,-0.06634899973869324,0.004796000197529793,-0.28671398758888245,-19.799999237060547,-6.0,84.5999984741211
1638389575.1170077,1638389575132892761,0.3076539933681488,0.5602409839630127,9.470230102539062,0.016520999372005463,0.00133200001437217,-0.29444101452827454,-19.799999237060547,-6.0,84.5999984741211
1638389575.1588626,1638389575174775578,-1.033094048500061,-0.984013020992279,9.322986602783203,0.01065799966454506,0.05888799950480461,-0.24034899473190308,-13.199999809265137,0.0,91.20000457763672
1638389575.1761038,1638389575191992777,-1.234205961227417,-0.2609669864177704,10.451848983764648,0.06554999947547913,0.0666159987449646,-0.26965999603271484,-13.199999809265137,0.0,91.20000457763672
1638389575.1953738,1638389575211228730,-0.3220190107822418,0.41778698563575745,10.53205394744873,-0.04876299947500229,0.04130199924111366,-0.30989599227905273,-13.199999809265137,0.0,91.20000457763672
1638389575.2185373,1638389575234560942,0.8463469743728638,-0.09337399899959564,9.433119773864746,-0.08313599973917007,0.0333079993724823,-0.2648639976978302,-13.199999809265137,0.0,91.20000457763672
1638389575.245688,1638389575261197815,1.6065030097961426,-0.17238199710845947,9.423542976379395,-0.03623899817466736,0.03943600133061409,-0.06741499900817871,-13.199999809265137,0.0,91.20000457763672
1638389575.260185,1638389575272971704,-2.1870949268341064,-1.6100950241088867,10.206443786621094,-0.07993900030851364,0.11404599994421005,0.19132000207901,-10.200000762939453,-1.7999999523162842,91.80000305175781
1638389575.277602,1638389575293055190,-0.9361289739608765,0.6284760236740112,10.785839080810547,0.009859000332653522,-0.011458000168204308,0.25500500202178955,-10.200000762939453,-1.7999999523162842,91.80000305175781
1638389575.2953677,1638389575311049610,-0.12569500505924225,-0.19632400572299957,9.68091869354248,-0.06181899830698967,-0.015188000164926052,0.29284200072288513,-10.200000762939453,-1.7999999523162842,91.80000305175781
1638389575.317215,1638389575332881909,0.13527199625968933,-0.8738800287246704,9.854497909545898,-0.07967200130224228,0.06048699840903282,0.2752560079097748,-10.200000762939453,-1.7999999523162842,91.80000305175781
1638389575.3589473,1638389575374874098,-0.8224049806594849,-0.41778698563575745,9.524099349975586,-0.008527000434696674,0.03410699963569641,0.19558300077915192,-9.0,10.800000190734863,91.20000457763672
1638389575.37648,1638389575392192180,-0.19632400572299957,0.2980769872665405,10.096311569213867,0.046098001301288605,-0.01012600027024746,-0.009060000069439411,-9.0,10.800000190734863,91.20000457763672
1638389575.3960273,1638389575411310428,-0.16041100025177002,0.5279200077056885,10.809781074523926,0.026913000270724297,0.061553001403808594,-0.21423600614070892,-9.0,10.800000190734863,91.20000457763672
1638389575.416915,1638389575432853150,-0.022745000198483467,0.6739649772644043,9.804220199584961,-0.02078399993479252,0.061553001403808594,-0.23981599509716034,-9.0,10.800000190734863,91.20000457763672
1638389575.4449396,1638389575460853637,-2.3606739044189453,0.7302290201187134,11.299392700195312,-0.022648999467492104,0.11218100041151047,-0.24301399290561676,-9.0,10.800000190734863,91.20000457763672
1638389575.4583097,1638389575474234104,-0.1855500042438507,-0.10414700210094452,10.120253562927246,-0.07301100343465805,0.025313999503850937,-0.23608599603176117,-14.100000381469727,15.300000190734863,78.89999389648438
1638389575.4756615,1638389575491460469,0.04788399860262871,-0.17238199710845947,10.397979736328125,-0.030910000205039978,0.016787000000476837,-0.2126370072364807,-14.100000381469727,15.300000190734863,78.89999389648438
1638389575.4975953,1638389575513275737,0.488415002822876,0.08140300214290619,9.0715970993042,-0.0708789974451065,-0.05249299854040146,-0.20730799436569214,-14.100000381469727,15.300000190734863,78.89999389648438
1638389575.519669,1638389575532646166,-1.705862045288086,0.6272789835929871,11.144968032836914,-0.049828000366687775,0.0418349988758564,-0.21903200447559357,-14.100000381469727,15.300000190734863,78.89999389648438
1638389575.558505,1638389575574431642,-0.2765290141105652,0.11970999836921692,10.389599800109863,0.032242000102996826,0.016787000000476837,-0.2829830050468445,-17.700000762939453,16.5,65.69999694824219
1638389575.5767138,1638389575591834565,-0.7410029768943787,0.11970999836921692,9.710845947265625,-0.004263000097125769,0.04396599903702736,-0.25420498847961426,-17.700000762939453,16.5,65.69999694824219
1638389575.596728,1638389575611706181,-1.332368016242981,0.3722969889640808,11.352065086364746,0.015987999737262726,0.033574000000953674,-0.21423600614070892,-17.700000762939453,16.5,65.69999694824219
1638389575.618,1638389575633556396,0.24420799314975739,-0.1544249951839447,9.697678565979004,-0.008527000434696674,-0.006128999870270491,-0.251008003950119,-17.700000762939453,16.5,65.69999694824219
1638389575.65705,1638389575672768494,-1.5047500133514404,0.5231310129165649,10.614653587341309,-0.012257000431418419,0.0580889992415905,-0.2736569941043854,-18.600000381469727,1.2000000476837158,63.599998474121094
1638389575.6764011,1638389575692299337,-0.4632759988307953,0.04189800098538399,10.516491889953613,-0.05595700070261955,-0.004530000034719706,-0.29097700119018555,-18.600000381469727,1.2000000476837158,63.599998474121094
1638389575.6963854,1638389575712115172,-0.1137240007519722,0.9888020157814026,10.092720031738281,-0.013322999700903893,-0.09432800114154816,-0.285647988319397,-18.600000381469727,1.2000000476837158,63.599998474121094
1638389575.7179165,1638389575733787891,-0.45729100704193115,0.06943199783563614,9.977798461914062,-0.10072299838066101,-0.005861999932676554,-0.2110379934310913,-18.600000381469727,1.2000000476837158,63.599998474121094
1638389575.7574346,1638389575773076290,-0.7733240127563477,0.03711000084877014,10.075960159301758,0.03037700057029724,0.06261900067329407,-0.29097700119018555,-26.100000381469727,-5.099999904632568,67.5
1638389575.7765555,1638389575792534009,0.23104000091552734,0.017955999821424484,9.246373176574707,-0.060752999037504196,-0.007193999830633402,-0.2973720133304596,-26.100000381469727,-5.099999904632568,67.5
1638389575.7977748,1638389575812605203,-0.4704590141773224,0.3818739950656891,10.831328392028809,-0.03623899817466736,0.04396599903702736,-0.25154098868370056,-26.100000381469727,-5.099999904632568,67.5
1638389575.817965,1638389575833889650,-1.5179179906845093,-0.15562300384044647,10.144195556640625,0.018386000767350197,0.05249299854040146,-0.23448699712753296,-26.100000381469727,-5.099999904632568,67.5
1638389575.8571837,1638389575873130029,1.0342910289764404,0.20111200213432312,9.560011863708496,-0.050627999007701874,0.0247809998691082,-0.30456700921058655,-24.899999618530273,-13.5,84.30000305175781
1638389575.8772552,1638389575892759255,-0.32920199632644653,0.2023089975118637,11.053988456726074,-0.03463999927043915,0.090597003698349,-0.26513001322746277,-24.899999618530273,-13.5,84.30000305175781
1638389575.8969283,1638389575912675921,0.27054399251937866,0.09457100182771683,8.852527618408203,0.03170900046825409,-0.05888799950480461,-0.2648639976978302,-24.899999618530273,-13.5,84.30000305175781
1638389575.916411,1638389575932275825,-1.618474006652832,0.09337399899959564,10.33812427520752,0.0039969999343156815,0.048496000468730927,-0.2494090050458908,-24.899999618530273,-13.5,84.30000305175781
1638389575.9577792,1638389575973549072,0.16400200128555298,0.18914100527763367,10.068778038024902,0.00506300013512373,0.03863700106739998,-0.30030301213264465,-18.899999618530273,7.5,92.69999694824219
1638389575.977044,1638389575992810754,-1.0103490352630615,0.2573759853839874,9.70366382598877,-0.0162540003657341,0.04663100093603134,-0.2861810028553009,-18.899999618530273,7.5,92.69999694824219
1638389575.998366,1638389576014267283,1.0091520547866821,-0.4225749969482422,8.809432983398438,-0.060752999037504196,0.035971999168395996,-0.2880460023880005,-18.899999618530273,7.5,92.69999694824219
1638389576.0167503,1638389576032452015,0.12210399657487869,0.36152300238609314,10.096311569213867,-0.05009499937295914,0.03304100036621094,-0.2845819890499115,-18.899999618530273,7.5,92.69999694824219
1638389576.045635,1638389576061383946,-0.9923930168151855,0.5913659930229187,10.751123428344727,0.004796000197529793,0.07647500187158585,-0.283515989780426,-18.899999618530273,7.5,92.69999694824219
1638389576.0574474,1638389576073309085,-0.7302290201187134,0.4153920114040375,10.000543594360352,-0.046897001564502716,0.035440001636743546,-0.29763901233673096,-13.5,19.5,78.89999389648438
1638389576.0768147,1638389576092670926,-1.434121012687683,-0.259770005941391,10.910335540771484,-0.04316699877381325,0.06368499994277954,-0.32161998748779297,-13.5,19.5,78.89999389648438
1638389576.0967278,1638389576112675877,1.0869640111923218,0.7410029768943787,9.95625114440918,-0.05595700070261955,-0.04822999984025955,-0.3392069935798645,-13.5,19.5,78.89999389648438
1638389576.120148,1638389576136060072,0.8750770092010498,0.2837119996547699,9.52290153503418,-0.0692799985408783,-0.037571001797914505,-0.1196419969201088,-13.5,19.5,78.89999389648438
1638389576.1581426,1638389576173684404,-0.6823449730873108,-1.5334810018539429,10.351292610168457,-0.019984999671578407,0.009060000069439411,0.30962899327278137,-14.699999809265137,25.5,62.099998474121094
1638389576.1777387,1638389576193604097,0.9540860056877136,0.03830699995160103,9.615078926086426,0.0410350002348423,-0.04876299947500229,0.2701930105686188,-14.699999809265137,25.5,62.099998474121094
1638389576.1973655,1638389576213153902,-0.42377200722694397,-0.1544249951839447,10.002937316894531,-0.054625000804662704,0.08473499864339828,0.2566030025482178,-14.699999809265137,25.5,62.099998474121094
1638389576.218819,1638389576234687411,-1.9656319618225098,-0.8080400228500366,9.55642032623291,-0.05595700070261955,0.03810400143265724,0.2853809893131256,-14.699999809265137,25.5,62.099998474121094
1638389576.2448697,1638389576260445509,-0.794871985912323,-0.9026110172271729,9.977798461914062,0.00026599998818710446,0.0325080007314682,0.1153779998421669,-14.699999809265137,25.5,62.099998474121094
1638389576.2580178,1638389576273938372,-0.5793949961662292,1.4029970169067383,11.05757999420166,-0.008259999565780163,0.07407700270414352,-0.18492500483989716,-18.600000381469727,20.400001525878906,47.400001525878906
1638389576.2808588,1638389576293562082,0.49081000685691833,0.06703700125217438,9.525296211242676,-0.10978300124406815,0.0418349988758564,-0.24061599373817444,-18.600000381469727,20.400001525878906,47.400001525878906
1638389576.298509,1638389576313860880,-1.171957015991211,-0.0143649997189641,10.02328872680664,-0.03490699827671051,0.03890400007367134,-0.20917299389839172,-18.600000381469727,20.400001525878906,47.400001525878906
1638389576.318812,1638389576334773102,-0.15083399415016174,-0.3160330057144165,9.908367156982422,-0.08073800057172775,0.007993999868631363,-0.18572400510311127,-18.600000381469727,20.400001525878906,47.400001525878906
1638389576.3469286,1638389576361352743,0.28730300068855286,1.1563949584960938,9.876045227050781,-0.09379500150680542,-0.0162540003657341,-0.1606770008802414,-18.600000381469727,20.400001525878906,47.400001525878906
1638389576.3585842,1638389576374206090,1.1049200296401978,-1.1288620233535767,9.953856468200684,-0.15161700546741486,0.03010999970138073,0.10338699817657471,-23.399999618530273,12.600000381469727,36.599998474121094
1638389576.3786657,1638389576393854486,-1.6735409498214722,-0.854727029800415,10.68049430847168,-0.06501699984073639,0.08953099697828293,0.3829070031642914,-23.399999618530273,12.600000381469727,36.599998474121094
1638389576.3994951,1638389576415119668,0.843953013420105,-1.2330089807510376,9.222431182861328,-0.06528300046920776,0.04316699877381325,0.6203250288963318,-23.399999618530273,12.600000381469727,36.599998474121094
1638389576.4219728,1638389576437651383,1.1575920581817627,-1.2545570135116577,8.404813766479492,0.008527000434696674,0.024248000234365463,0.6754819750785828,-23.399999618530273,12.600000381469727,36.599998474121094
1638389576.445347,1638389576460876936,-2.3451120853424072,-0.055066000670194626,11.638171195983887,0.05382499843835831,0.14069199562072754,0.6344469785690308,-23.399999618530273,12.600000381469727,36.599998474121094
1638389576.4587843,1638389576474570159,-0.04668699949979782,-1.2988500595092773,9.574377059936523,-0.0247809998691082,0.06554999947547913,0.5174700021743774,-24.600000381469727,-8.40000057220459,49.79999923706055
1638389576.4800262,1638389576495863465,-0.8307849764823914,-0.49799200892448425,9.271512031555176,-0.090597003698349,0.04636399820446968,0.33547601103782654,-24.600000381469727,-8.40000057220459,49.79999923706055
1638389576.4974394,1638389576513277383,-1.4844000339508057,-0.8631070256233215,11.086310386657715,-0.07913900166749954,0.07567500323057175,0.1588120013475418,-24.600000381469727,-8.40000057220459,49.79999923706055
1638389576.5214508,1638389576536822251,-1.0402770042419434,1.2761050462722778,9.70366382598877,0.05116099864244461,-0.0418349988758564,-0.150285005569458,-24.600000381469727,-8.40000057220459,49.79999923706055
1638389576.5593143,1638389576574670797,0.515949010848999,-0.9516919851303101,9.026106834411621,-0.05675699934363365,-0.037571001797914505,-0.1889220029115677,-23.399999618530273,-7.800000190734863,68.39999389648438
1638389576.57888,1638389576594383359,1.0067579746246338,0.2849090099334717,9.528887748718262,-0.013322999700903893,0.031442999839782715,-0.1819940060377121,-23.399999618530273,-7.800000190734863,68.39999389648438
1638389576.5980468,1638389576613809157,-0.7613530158996582,-0.27054399251937866,9.667750358581543,-0.06714899837970734,0.04503199830651283,0.06208600103855133,-23.399999618530273,-7.800000190734863,68.39999389648438
1638389576.6208987,1638389576636050722,0.04668699949979782,-0.4632759988307953,11.232356071472168,-0.11138100177049637,0.06208600103855133,0.37624499201774597,-23.399999618530273,-7.800000190734863,68.39999389648438
1638389576.6621966,1638389576675030856,1.5131299495697021,-0.5063719749450684,10.017303466796875,-0.0855339989066124,0.029044000431895256,0.8404229879379272,-26.100000381469727,-3.9000000953674316,77.70000457763672
1638389576.68073,1638389576696278799,0.36870598793029785,-1.4772169589996338,10.120253562927246,-0.0572890006005764,0.05382499843835831,1.0493290424346924,-26.100000381469727,-3.9000000953674316,77.70000457763672
1638389576.7001376,1638389576715304710,0.12689200043678284,-1.429332971572876,10.573952674865723,-0.049828000366687775,0.047697000205516815,1.1098159551620483,-26.100000381469727,-3.9000000953674316,77.70000457763672
1638389576.7178607,1638389576733383717,-0.045490000396966934,-0.815222978591919,10.127435684204102,0.011458000168204308,-0.04316699877381325,1.1164779663085938,-26.100000381469727,-3.9000000953674316,77.70000457763672
1638389576.7440753,1638389576759476286,-0.15562300384044647,-1.0797810554504395,9.496565818786621,-0.032242000102996826,0.011458000168204308,1.1335309743881226,-26.100000381469727,-3.9000000953674316,77.70000457763672
1638389576.7597592,1638389576775263158,-2.3187758922576904,-1.4832019805908203,10.437483787536621,-0.00506300013512373,0.09432800114154816,1.110082983970642,-28.799999237060547,-3.5999999046325684,73.80000305175781
1638389576.7785213,1638389576794473961,-0.7098780274391174,-1.1671689748764038,9.836541175842285,0.04743000119924545,-0.012790000066161156,1.0122909545898438,-28.799999237060547,-3.5999999046325684,73.80000305175781
1638389576.798482,1638389576814146628,-1.3096230030059814,-1.3371570110321045,9.127860069274902,0.02158300019800663,0.0037299999967217445,0.8297640085220337,-28.799999237060547,-3.5999999046325684,73.80000305175781
1638389576.818487,1638389576834026425,-2.1009039878845215,0.7649449706077576,11.674084663391113,0.10312099754810333,0.05968799814581871,0.5449159741401672,-28.799999237060547,-3.5999999046325684,73.80000305175781
1638389576.858624,1638389576874460276,1.8171919584274292,-0.5231310129165649,9.546843528747559,-0.002131999935954809,0.07647500187158585,0.2102389931678772,-28.799999237060547,-3.5999999046325684,73.80000305175781
1638389576.8625488,1638389576878407840,-3.393768072128296,1.0749930143356323,10.33573055267334,-0.007993999868631363,0.08873199671506882,-0.07114499807357788,-28.200000762939453,-8.40000057220459,80.4000015258789
1638389576.8805456,1638389576896098678,0.5075690150260925,0.6871330142021179,9.719225883483887,-0.0991239994764328,-0.049295999109745026,-0.281917005777359,-28.200000762939453,-8.40000057220459,80.4000015258789
1638389576.9017117,1638389576917611771,-0.8894429802894592,-0.6548119783401489,10.600288391113281,-0.10871700197458267,0.01945200003683567,-0.27285799384117126,-28.200000762939453,-8.40000057220459,80.4000015258789
1638389576.920218,1638389576936208317,-0.5171459913253784,0.09217599779367447,9.662961959838867,-0.03384099900722504,-0.0828699991106987,-0.19798199832439423,-28.200000762939453,-8.40000057220459,80.4000015258789
1638389576.9615467,1638389576977282205,0.34356701374053955,0.1927330046892166,9.990966796875,-0.10232199728488922,-0.05515800043940544,-0.17959600687026978,-20.100000381469727,-14.699999809265137,92.10000610351562
1638389576.9807982,1638389576996553266,0.7422000169754028,-0.3268069922924042,10.002937316894531,-0.024514999240636826,-0.07407700270414352,0.05329199880361557,-20.100000381469727,-14.699999809265137,92.10000610351562
1638389577.0018313,1638389577017100707,-1.1551979780197144,-1.0211230516433716,9.354111671447754,-0.038371000438928604,-0.05116099864244461,0.3682509958744049,-20.100000381469727,-14.699999809265137,92.10000610351562
1638389577.0184612,1638389577034394423,0.05865800008177757,-1.6962859630584717,9.321789741516113,-0.032242000102996826,-0.0828699991106987,0.5931450128555298,-20.100000381469727,-14.699999809265137,92.10000610351562
1638389577.0443778,1638389577060219974,0.04908100143074989,-0.30406200885772705,10.260313034057617,0.07034599781036377,-0.06874699890613556,0.6509680151939392,-20.100000381469727,-14.699999809265137,92.10000610351562
1638389577.0601246,1638389577075415301,-1.6962859630584717,-0.8044490218162537,10.256722450256348,-0.0325080007314682,-0.003464000066742301,0.6229889988899231,-10.5,-3.9000000953674316,112.5
1638389577.079152,1638389577094862145,-0.7589589953422546,2.7425479888916016,12.071520805358887,0.051426999270915985,0.009325999766588211,0.49775201082229614,-10.5,-3.9000000953674316,112.5
1638389577.1006777,1638389577116570395,-0.5374959707260132,-2.2924399375915527,9.883228302001953,-0.09939099848270416,-0.06954699754714966,0.3767780065536499,-10.5,-3.9000000953674316,112.5
1638389577.1203108,1638389577136236661,-0.0143649997189641,0.3543410003185272,8.329397201538086,0.08873199671506882,-0.13882699608802795,0.15934500098228455,-10.5,-3.9000000953674316,112.5
1638389577.1599874,1638389577175482632,-1.5574220418930054,0.0407009981572628,10.86365032196045,-0.11404599994421005,0.1076510027050972,-0.17133499681949615,-12.600000381469727,22.200000762939453,91.80000305175781
1638389577.1792424,1638389577195057858,0.989998996257782,0.4955979883670807,9.57796859741211,-0.001598999951966107,-0.009859000332653522,-0.19878099858760834,-12.600000381469727,22.200000762939453,91.80000305175781
1638389577.2009947,1638389577216528926,-0.18076199293136597,-0.08020500093698502,9.164970397949219,-0.007193999830633402,0.007726999931037426,-0.2350199967622757,-12.600000381469727,22.200000762939453,91.80000305175781
1638389577.2206583,1638389577236513153,-0.1376660019159317,-0.35194599628448486,9.673736572265625,-0.0418349988758564,0.04583200067281723,-0.19957999885082245,-12.600000381469727,22.200000762939453,91.80000305175781
1638389577.2636049,1638389577277963396,0.44172900915145874,-0.5183429718017578,8.804644584655762,-0.06954699754714966,0.0247809998691082,-0.17106899619102478,-3.299999952316284,20.69999885559082,82.5
