Time,time,accelX,accelY,accelZ,gyroX,gyroY,gyroZ,magX,magY,magZ
1638389442.8545678,1638389442866755470,-0.49200698733329773,-0.10893599689006805,10.013711929321289,-0.02877799980342388,0.01705400086939335,0.0037299999967217445,-2.4000000953674316,-1.2000000476837158,57.599998474121094
1638389442.8742716,1638389442886615778,-0.45130500197410583,-0.07781100273132324,10.018500328063965,-0.02851100079715252,0.01785299926996231,0.0037299999967217445,-2.4000000953674316,-1.2000000476837158,57.599998474121094
1638389442.89634,1638389442908067579,-0.5123569965362549,-0.11013299971818924,9.996952056884766,-0.02851100079715252,0.018386000767350197,0.0037299999967217445,-2.4000000953674316,-1.2000000476837158,57.599998474121094
1638389442.9155104,1638389442927442860,-0.5171459913253784,-0.0730229988694191,9.971813201904297,-0.029044000431895256,0.018118999898433685,0.004263000097125769,-2.4000000953674316,-1.2000000476837158,57.599998474121094
1638389442.9411018,1638389442953600284,-0.49081000685691833,-0.11611799895763397,9.950265884399414,-0.02877799980342388,0.017319999635219574,0.003197999903932214,-1.5,-0.8999999761581421,58.5
1638389442.9563885,1638389442966698242,-0.4716559946537018,-0.12449800223112106,9.990966796875,-0.02877799980342388,0.018651999533176422,0.0037299999967217445,-1.5,-0.8999999761581421,58.5
1638389442.974939,1638389442986750904,-0.48243001103401184,-0.09816200286149979,9.93350601196289,-0.02797899954020977,0.01785299926996231,0.003197999903932214,-1.5,-0.8999999761581421,58.5
1638389443.00414,1638389443008125617,-0.48961201310157776,-0.07900799810886383,9.986178398132324,-0.02797899954020977,0.018118999898433685,0.004530000034719706,-1.5,-0.8999999761581421,58.5
1638389443.0191686,1638389443027316251,-0.5255249738693237,-0.10654199868440628,9.975404739379883,-0.027445999905467033,0.01785299926996231,0.0039969999343156815,-1.5,-0.8999999761581421,58.5
1638389443.055415,1638389443066961809,-0.49799200892448425,-0.13048399984836578,9.967024803161621,-0.02851100079715252,0.01705400086939335,0.0039969999343156815,-0.8999999761581421,-0.8999999761581421,58.5
1638389443.0766294,1638389443089087760,-0.4548969864845276,-0.10654199868440628,9.965827941894531,-0.02851100079715252,0.017587000504136086,0.003197999903932214,-0.8999999761581421,-0.8999999761581421,58.5
1638389443.0959036,1638389443108457519,-0.484824001789093,-0.09337399899959564,9.95864486694336,-0.028245000168681145,0.017587000504136086,0.0037299999967217445,-0.8999999761581421,-0.8999999761581421,58.5
1638389443.1155937,1638389443127914575,-0.5255249738693237,-0.045490000396966934,10.014908790588379,-0.02851100079715252,0.018118999898433685,0.004530000034719706,-0.8999999761581421,-0.8999999761581421,58.5
1638389443.15542,1638389443167295221,-0.4860210120677948,-0.09337399899959564,9.950265884399414,-0.029044000431895256,0.017587000504136086,0.0037299999967217445,-0.30000001192092896,-1.5,59.099998474121094
1638389443.1763752,1638389443188929479,-0.46566998958587646,-0.12449800223112106,9.981389999389648,-0.02931099943816662,0.016520999372005463,0.003464000066742301,-0.30000001192092896,-1.5,59.099998474121094
1638389443.1984193,1638389443208275383,-0.44891101121902466,-0.10893599689006805,9.978996276855469,-0.02851100079715252,0.01785299926996231,0.0037299999967217445,-0.30000001192092896,-1.5,59.099998474121094
1638389443.2145238,1638389443227015055,-0.5099629759788513,-0.08259999752044678,10.031667709350586,-0.02851100079715252,0.018386000767350197,0.0039969999343156815,-0.30000001192092896,-1.5,59.099998474121094
1638389443.241371,1638389443253495724,-0.5279200077056885,-0.08259999752044678,9.938294410705566,-0.02851100079715252,0.01785299926996231,0.0039969999343156815,-1.7999999523162842,0.0,57.599998474121094
1638389443.2562895,1638389443268572488,-0.5039780139923096,-0.1292860060930252,9.998148918151855,-0.02851100079715252,0.01785299926996231,0.004263000097125769,-1.7999999523162842,0.0,57.599998474121094
1638389443.2769964,1638389443289129499,-0.505174994468689,-0.10175299644470215,9.950265884399414,-0.029044000431895256,0.017319999635219574,0.004530000034719706,-1.7999999523162842,0.0,57.599998474121094
1638389443.2961247,1638389443308485091,-0.5063719749450684,-0.09457100182771683,9.965827941894531,-0.02877799980342388,0.017587000504136086,0.0039969999343156815,-1.7999999523162842,0.0,57.599998474121094
1638389443.317062,1638389443327373053,-0.5015829801559448,-0.09816200286149979,9.990966796875,-0.02851100079715252,0.018651999533176422,0.004263000097125769,-1.7999999523162842,0.0,57.599998474121094
1638389443.3456492,1638389443357823731,-0.5207369923591614,-0.08259999752044678,9.993361473083496,-0.02851100079715252,0.018651999533176422,0.003464000066742301,-1.2000000476837158,-1.2000000476837158,58.79999923706055
1638389443.3572092,1638389443369560259,-0.5219339728355408,-0.11970999836921692,10.011317253112793,-0.029044000431895256,0.01785299926996231,0.003197999903932214,-1.2000000476837158,-1.2000000476837158,58.79999923706055
1638389443.3769557,1638389443389344520,-0.49918898940086365,-0.11252699792385101,9.978996276855469,-0.02851100079715252,0.017319999635219574,0.002930999966338277,-1.2000000476837158,-1.2000000476837158,58.79999923706055
1638389443.39571,1638389443408136956,-0.4692620038986206,-0.09576799720525742,9.950265884399414,-0.028245000168681145,0.018118999898433685,0.003464000066742301,-1.2000000476837158,-1.2000000476837158,58.79999923706055
1638389443.4533782,1638389443464405403,-0.519540011882782,-0.09217599779367447,9.959842681884766,-0.028245000168681145,0.017587000504136086,0.002930999966338277,-1.2000000476837158,-1.2000000476837158,58.79999923706055
1638389443.459027,1638389443470560219,-0.5003859996795654,-0.09217599779367447,9.931112289428711,-0.02797899954020977,0.018118999898433685,0.004263000097125769,-1.7999999523162842,-1.7999999523162842,58.20000076293945
1638389443.4611776,1638389443471989568,-0.4955979883670807,-0.11731500178575516,9.965827941894531,-0.02851100079715252,0.018118999898433685,0.0039969999343156815,-1.7999999523162842,-1.7999999523162842,58.20000076293945
1638389443.4781687,1638389443490289789,-0.4932039976119995,-0.10055600106716156,9.95864486694336,-0.02797899954020977,0.017587000504136086,0.004263000097125769,-1.7999999523162842,-1.7999999523162842,58.20000076293945
1638389443.49919,1638389443510925347,-0.45609399676322937,-0.11133000254631042,9.9694185256958,-0.02877799980342388,0.018118999898433685,0.0037299999967217445,-1.7999999523162842,-1.7999999523162842,58.20000076293945
1638389443.5179613,1638389443530116606,-0.48123300075531006,-0.11731500178575516,9.968221664428711,-0.029044000431895256,0.018651999533176422,0.0039969999343156815,-1.7999999523162842,-1.7999999523162842,58.20000076293945
1638389443.5423703,1638389443554462628,-0.502780020236969,-0.10534399747848511,9.970616340637207,-0.029044000431895256,0.018919000402092934,0.002930999966338277,-0.30000001192092896,-0.8999999761581421,57.900001525878906
1638389443.5575612,1638389443570018688,-0.5231310129165649,-0.11013299971818924,9.993361473083496,-0.027712000533938408,0.018118999898433685,0.0026650000363588333,-0.30000001192092896,-0.8999999761581421,57.900001525878906
1638389443.5786748,1638389443590923844,-0.4955979883670807,-0.08738800138235092,9.92273235321045,-0.02851100079715252,0.018386000767350197,0.003197999903932214,-0.30000001192092896,-0.8999999761581421,57.900001525878906
1638389443.5966709,1638389443609132914,-0.5183429718017578,-0.08020500093698502,9.95744800567627,-0.028245000168681145,0.018118999898433685,0.0037299999967217445,-0.30000001192092896,-0.8999999761581421,57.900001525878906
1638389443.616019,1638389443628404699,-0.4955979883670807,-0.08379700034856796,10.012514114379883,-0.02851100079715252,0.017587000504136086,0.003464000066742301,-0.30000001192092896,-0.8999999761581421,57.900001525878906
1638389443.6422067,1638389443654619052,-0.5123569965362549,-0.043095000088214874,9.970616340637207,-0.02877799980342388,0.017587000504136086,0.0039969999343156815,-2.0999999046325684,-1.5,58.5
1638389443.6575344,1638389443669976507,-0.5231310129165649,-0.10414700210094452,10.020894050598145,-0.029044000431895256,0.018118999898433685,0.004530000034719706,-2.0999999046325684,-1.5,58.5
1638389443.677345,1638389443689351267,-0.49081000685691833,-0.10534399747848511,9.941885948181152,-0.02877799980342388,0.018919000402092934,0.004263000097125769,-2.0999999046325684,-1.5,58.5
1638389443.6963913,1638389443708808374,-0.4608820080757141,-0.11611799895763397,9.964631080627441,-0.02877799980342388,0.018386000767350197,0.004530000034719706,-2.0999999046325684,-1.5,58.5
1638389443.715773,1638389443728323454,-0.46686801314353943,-0.11252699792385101,9.946674346923828,-0.02851100079715252,0.018919000402092934,0.0039969999343156815,-2.0999999046325684,-1.5,58.5
1638389443.7553022,1638389443767581385,-0.488415002822876,-0.061051998287439346,9.987375259399414,-0.02877799980342388,0.017587000504136086,0.003464000066742301,-1.2000000476837158,-1.2000000476837158,58.79999923706055
1638389443.7590268,1638389443771604783,-0.488415002822876,-0.061051998287439346,9.952659606933594,-0.02877799980342388,0.018651999533176422,0.0039969999343156815,-1.2000000476837158,-1.2000000476837158,58.79999923706055
1638389443.7766829,1638389443789070010,-0.5171459913253784,-0.10414700210094452,10.008923530578613,-0.02851100079715252,0.018919000402092934,0.004263000097125769,-1.2000000476837158,-1.2000000476837158,58.79999923706055
1638389443.7960017,1638389443808369661,-0.4692620038986206,-0.09816200286149979,9.941885948181152,-0.027712000533938408,0.01785299926996231,0.0039969999343156815,-1.2000000476837158,-1.2000000476837158,58.79999923706055
1638389443.8369188,1638389443849462068,-0.45609399676322937,-0.10294999927282333,9.963433265686035,-0.028245000168681145,0.017587000504136086,0.003464000066742301,-1.2000000476837158,-1.2000000476837158,58.79999923706055
1638389443.8412228,1638389443853850017,-0.505174994468689,-0.08619099855422974,9.967024803161621,-0.02851100079715252,0.018386000767350197,0.0037299999967217445,-0.6000000238418579,-1.2000000476837158,57.599998474121094
1638389443.856205,1638389443868791461,-0.5291169881820679,-0.09097900241613388,9.973010063171387,-0.029044000431895256,0.017587000504136086,0.004263000097125769,-0.6000000238418579,-1.2000000476837158,57.599998474121094
1638389443.879401,1638389443888735001,-0.5039780139923096,-0.11133000254631042,9.995755195617676,-0.02877799980342388,0.01785299926996231,0.003464000066742301,-0.6000000238418579,-1.2000000476837158,57.599998474121094
1638389443.8959613,1638389443908221850,-0.47404998540878296,-0.12569500505924225,9.90597152709961,-0.02877799980342388,0.01785299926996231,0.0039969999343156815,-0.6000000238418579,-1.2000000476837158,57.599998474121094
1638389443.9371583,1638389443949350040,-0.47285300493240356,-0.09576799720525742,9.962236404418945,-0.02931099943816662,0.01785299926996231,0.003464000066742301,-0.6000000238418579,-1.2000000476837158,57.599998474121094
1638389443.9414003,1638389443953738197,-0.5075690150260925,-0.10773900151252747,9.994558334350586,-0.028245000168681145,0.018386000767350197,0.004263000097125769,-3.0,-1.2000000476837158,59.400001525878906
1638389443.9582558,1638389443968767979,-0.5015829801559448,-0.09457100182771683,9.984981536865234,-0.02851100079715252,0.018118999898433685,0.003464000066742301,-3.0,-1.2000000476837158,59.400001525878906
1638389443.976117,1638389443988716988,-0.5003859996795654,-0.09217599779367447,9.953856468200684,-0.02851100079715252,0.018118999898433685,0.003197999903932214,-3.0,-1.2000000476837158,59.400001525878906
1638389443.9977748,1638389444010252595,-0.4872179925441742,-0.10414700210094452,9.923929214477539,-0.02877799980342388,0.01785299926996231,0.00532899983227253,-3.0,-1.2000000476837158,59.400001525878906
1638389444.036773,1638389444049203529,-0.49200698733329773,-0.10773900151252747,9.920337677001953,-0.029577000066637993,0.018118999898433685,0.004796000197529793,-3.0,-1.2000000476837158,59.400001525878906
1638389444.0414677,1638389444053594394,-0.4764440059661865,-0.10175299644470215,9.95864486694336,-0.02877799980342388,0.01705400086939335,0.0037299999967217445,-0.8999999761581421,-1.5,58.5
1638389444.0562487,1638389444068626414,-0.4932039976119995,-0.08619099855422974,10.02687931060791,-0.02877799980342388,0.017587000504136086,0.0037299999967217445,-0.8999999761581421,-1.5,58.5
1638389444.0804398,1638389444090579439,-0.5123569965362549,-0.08140300214290619,9.945476531982422,-0.02877799980342388,0.018118999898433685,0.003197999903932214,-0.8999999761581421,-1.5,58.5
1638389444.0972052,1638389444109829190,-0.5135539770126343,-0.10654199868440628,9.965827941894531,-0.028245000168681145,0.018386000767350197,0.0037299999967217445,-0.8999999761581421,-1.5,58.5
1638389444.149613,1638389444162125073,-0.4860210120677948,-0.10654199868440628,9.962236404418945,-0.02851100079715252,0.018651999533176422,0.0039969999343156815,-0.8999999761581421,-1.5,58.5
1638389444.1538763,1638389444166374629,-0.4872179925441742,-0.08858499675989151,9.978996276855469,-0.028245000168681145,0.01785299926996231,0.003464000066742301,-0.30000001192092896,-2.0999999046325684,56.69999694824219
1638389444.1580226,1638389444170592203,-0.49918898940086365,-0.09816200286149979,10.02568244934082,-0.028245000168681145,0.018651999533176422,0.0037299999967217445,-0.30000001192092896,-2.0999999046325684,56.69999694824219
1638389444.1776195,1638389444190224320,-0.5410879850387573,-0.08499400317668915,9.982586860656738,-0.02877799980342388,0.017587000504136086,0.003197999903932214,-0.30000001192092896,-2.0999999046325684,56.69999694824219
1638389444.1974533,1638389444209694291,-0.49918898940086365,-0.10175299644470215,9.962236404418945,-0.02851100079715252,0.017587000504136086,0.004796000197529793,-0.30000001192092896,-2.0999999046325684,56.69999694824219
1638389444.249732,1638389444261915327,-0.5075690150260925,-0.1209070011973381,9.999346733093262,-0.02877799980342388,0.01705400086939335,0.0037299999967217445,-0.30000001192092896,-2.0999999046325684,56.69999694824219
1638389444.2538934,1638389444266330464,-0.4441229999065399,-0.09935899823904037,9.944279670715332,-0.02877799980342388,0.01785299926996231,0.002930999966338277,-0.8999999761581421,-0.8999999761581421,57.29999923706055
1638389444.2584522,1638389444270634918,-0.45968499779701233,-0.11133000254631042,9.99216365814209,-0.028245000168681145,0.017587000504136086,0.003197999903932214,-0.8999999761581421,-0.8999999761581421,57.29999923706055
1638389444.282489,1638389444290322663,-0.4764440059661865,-0.08499400317668915,9.963433265686035,-0.028245000168681145,0.018386000767350197,0.0039969999343156815,-0.8999999761581421,-0.8999999761581421,57.29999923706055
1638389444.3007712,1638389444309850554,-0.4788390100002289,-0.09337399899959564,9.971813201904297,-0.02877799980342388,0.018651999533176422,0.003197999903932214,-0.8999999761581421,-0.8999999761581421,57.29999923706055
1638389444.349851,1638389444362112269,-0.49918898940086365,-0.09097900241613388,9.9694185256958,-0.02931099943816662,0.018118999898433685,0.0039969999343156815,-0.8999999761581421,-0.8999999761581421,57.29999923706055
1638389444.3538194,1638389444366385680,-0.49679499864578247,-0.11492100358009338,9.964631080627441,-0.02877799980342388,0.016787000000476837,0.0039969999343156815,-2.4000000953674316,-1.2000000476837158,58.20000076293945
1638389444.3576896,1638389444370298654,-0.505174994468689,-0.10294999927282333,10.013711929321289,-0.02877799980342388,0.018386000767350197,0.002930999966338277,-2.4000000953674316,-1.2000000476837158,58.20000076293945
1638389444.3774784,1638389444389962022,-0.49918898940086365,-0.09816200286149979,9.971813201904297,-0.02851100079715252,0.018386000767350197,0.003464000066742301,-2.4000000953674316,-1.2000000476837158,58.20000076293945
1638389444.3974853,1638389444409200523,-0.5374959707260132,-0.0730229988694191,9.988572120666504,-0.02877799980342388,0.018118999898433685,0.003464000066742301,-2.4000000953674316,-1.2000000476837158,58.20000076293945
1638389444.4379704,1638389444450425748,-0.533905029296875,-0.07541699707508087,9.981389999389648,-0.02931099943816662,0.01785299926996231,0.0037299999967217445,-2.4000000953674316,-1.2000000476837158,58.20000076293945
1638389444.442152,1638389444454740880,-0.46447300910949707,-0.12330099940299988,9.921534538269043,-0.02851100079715252,0.017587000504136086,0.0039969999343156815,-1.5,-2.0999999046325684,59.70000076293945
1638389444.4572577,1638389444469808059,-0.47285300493240356,-0.11492100358009338,9.95744800567627,-0.02851100079715252,0.018651999533176422,0.0039969999343156815,-1.5,-2.0999999046325684,59.70000076293945
1638389444.4773188,1638389444489782381,-0.4872179925441742,-0.08619099855422974,9.951462745666504,-0.02851100079715252,0.018118999898433685,0.0039969999343156815,-1.5,-2.0999999046325684,59.70000076293945
1638389444.496687,1638389444509195787,-0.5111600160598755,-0.08379700034856796,9.973010063171387,-0.02877799980342388,0.018118999898433685,0.003464000066742301,-1.5,-2.0999999046325684,59.70000076293945
1638389444.5381045,1638389444550421794,-0.5243279933929443,-0.09816200286149979,9.940689086914062,-0.029044000431895256,0.018386000767350197,0.003464000066742301,-1.5,-2.0999999046325684,59.70000076293945
1638389444.5425217,1638389444554774063,-0.48243001103401184,-0.10893599689006805,9.951462745666504,-0.02877799980342388,0.01785299926996231,0.004263000097125769,-0.6000000238418579,-1.2000000476837158,58.79999923706055
1638389444.5573623,1638389444569833221,-0.4608820080757141,-0.10175299644470215,9.949068069458008,-0.02851100079715252,0.01785299926996231,0.0039969999343156815,-0.6000000238418579,-1.2000000476837158,58.79999923706055
1638389444.5772605,1638389444589783792,-0.4764440059661865,-0.1292860060930252,9.978996276855469,-0.02931099943816662,0.01705400086939335,0.0037299999967217445,-0.6000000238418579,-1.2000000476837158,58.79999923706055
1638389444.5989015,1638389444611374192,-0.4955979883670807,-0.08619099855422974,9.982586860656738,-0.029044000431895256,0.018118999898433685,0.0037299999967217445,-0.6000000238418579,-1.2000000476837158,58.79999923706055
1638389444.6379972,1638389444650437580,-0.5039780139923096,-0.08259999752044678,9.965827941894531,-0.02931099943816662,0.01705400086939335,0.0039969999343156815,-0.6000000238418579,-1.2000000476837158,58.79999923706055
1638389444.64246,1638389444654784276,-0.484824001789093,-0.1460459977388382,9.910760879516602,-0.02877799980342388,0.017587000504136086,0.004263000097125769,-0.8999999761581421,-0.8999999761581421,58.5
1638389444.6570811,1638389444669625974,-0.45010799169540405,-0.10414700210094452,9.994558334350586,-0.02851100079715252,0.01785299926996231,0.0039969999343156815,-0.8999999761581421,-0.8999999761581421,58.5
1638389444.6784403,1638389444690313773,-0.4776409864425659,-0.11492100358009338,9.95625114440918,-0.02877799980342388,0.01918499916791916,0.003464000066742301,-0.8999999761581421,-0.8999999761581421,58.5
1638389444.6995502,1638389444712022253,-0.4692620038986206,-0.08379700034856796,9.971813201904297,-0.028245000168681145,0.017319999635219574,0.0039969999343156815,-0.8999999761581421,-0.8999999761581421,58.5
1638389444.740382,1638389444751397949,-0.5039780139923096,-0.11731500178575516,9.974207878112793,-0.02851100079715252,0.01918499916791916,0.003464000066742301,-0.8999999761581421,-0.8999999761581421,58.5
1638389444.743256,1638389444755761886,-0.5267220139503479,-0.0969650000333786,9.946674346923828,-0.02851100079715252,0.017319999635219574,0.0037299999967217445,-2.4000000953674316,-2.4000000953674316,57.0
1638389444.7580473,1638389444770170018,-0.4955979883670807,-0.08140300214290619,9.986178398132324,-0.02877799980342388,0.017319999635219574,0.003464000066742301,-2.4000000953674316,-2.4000000953674316,57.0
1638389444.77786,1638389444790352998,-0.4932039976119995,-0.08858499675989151,9.983783721923828,-0.02877799980342388,0.017587000504136086,0.0037299999967217445,-2.4000000953674316,-2.4000000953674316,57.0
1638389444.7993665,1638389444811795682,-0.4932039976119995,-0.08619099855422974,9.971813201904297,-0.02851100079715252,0.017587000504136086,0.004263000097125769,-2.4000000953674316,-2.4000000953674316,57.0
1638389444.8390057,1638389444851258988,-0.5111600160598755,-0.05985499918460846,9.986178398132324,-0.029044000431895256,0.018651999533176422,0.003464000066742301,-2.4000000953674316,-2.4000000953674316,57.0
1638389444.8438284,1638389444855416403,-0.49918898940086365,-0.0969650000333786,9.970616340637207,-0.02877799980342388,0.01785299926996231,0.0039969999343156815,-3.299999952316284,-0.8999999761581421,57.900001525878906
1638389444.8578932,1638389444870476081,-0.4608820080757141,-0.11851300299167633,9.95505428314209,-0.02851100079715252,0.01705400086939335,0.0039969999343156815,-3.299999952316284,-0.8999999761581421,57.900001525878906
1638389444.8800437,1638389444890244819,-0.49679499864578247,-0.12330099940299988,9.917943954467773,-0.02877799980342388,0.017587000504136086,0.003464000066742301,-3.299999952316284,-0.8999999761581421,57.900001525878906
1638389444.899206,1638389444911784696,-0.47524699568748474,-0.11492100358009338,9.987375259399414,-0.02877799980342388,0.01785299926996231,0.0037299999967217445,-3.299999952316284,-0.8999999761581421,57.900001525878906
1638389444.9519234,1638389444964419921,-0.5315110087394714,-0.06583999842405319,10.006528854370117,-0.02877799980342388,0.01785299926996231,0.0037299999967217445,-3.299999952316284,-0.8999999761581421,57.900001525878906
1638389444.9565406,1638389444968520458,-0.515949010848999,-0.10654199868440628,9.961039543151855,-0.028245000168681145,0.018651999533176422,0.0039969999343156815,-1.2000000476837158,0.0,58.20000076293945
1638389444.9602225,1638389444972747929,-0.49200698733329773,-0.11252699792385101,9.953856468200684,-0.02851100079715252,0.01785299926996231,0.003464000066742301,-1.2000000476837158,0.0,58.20000076293945
1638389444.9799294,1638389444992273945,-0.45848798751831055,-0.10773900151252747,9.984981536865234,-0.02851100079715252,0.017587000504136086,0.004263000097125769,-1.2000000476837158,0.0,58.20000076293945
1638389444.9991481,1638389445011434733,-0.502780020236969,-0.09457100182771683,9.95625114440918,-0.027445999905467033,0.01705400086939335,0.0039969999343156815,-1.2000000476837158,0.0,58.20000076293945
1638389445.0517626,1638389445064174544,-0.5446789860725403,-0.11252699792385101,10.002937316894531,-0.02877799980342388,0.017319999635219574,0.0039969999343156815,-1.2000000476837158,0.0,58.20000076293945
1638389445.056042,1638389445068385191,-0.5111600160598755,-0.11731500178575516,9.965827941894531,-0.029044000431895256,0.018919000402092934,0.003197999903932214,-0.8999999761581421,-0.8999999761581421,58.5
1638389445.0600998,1638389445072659122,-0.5003859996795654,-0.11013299971818924,10.010120391845703,-0.02851100079715252,0.017587000504136086,0.002930999966338277,-0.8999999761581421,-0.8999999761581421,58.5
1638389445.0799181,1638389445092087685,-0.488415002822876,-0.10175299644470215,9.93350601196289,-0.02877799980342388,0.018919000402092934,0.004263000097125769,-0.8999999761581421,-0.8999999761581421,58.5
1638389445.098864,1638389445111370614,-0.4680649936199188,-0.09457100182771683,9.964631080627441,-0.02851100079715252,0.018118999898433685,0.0039969999343156815,-0.8999999761581421,-0.8999999761581421,58.5
1638389445.1517208,1638389445164280434,-0.4944010078907013,-0.09217599779367447,9.983783721923828,-0.02877799980342388,0.017587000504136086,0.0039969999343156815,-0.8999999761581421,-0.8999999761581421,58.5
1638389445.1559446,1638389445168476133,-0.5099629759788513,-0.10055600106716156,9.993361473083496,-0.028245000168681145,0.018118999898433685,0.003197999903932214,-2.700000047683716,-0.8999999761581421,57.900001525878906
1638389445.160433,1638389445172739074,-0.488415002822876,-0.08259999752044678,9.964631080627441,-0.02797899954020977,0.018118999898433685,0.0039969999343156815,-2.700000047683716,-0.8999999761581421,57.900001525878906
1638389445.1798437,1638389445192271965,-0.47285300493240356,-0.11970999836921692,9.950265884399414,-0.02797899954020977,0.018386000767350197,0.004263000097125769,-2.700000047683716,-0.8999999761581421,57.900001525878906
1638389445.1993275,1638389445211631305,-0.47285300493240356,-0.11492100358009338,9.927520751953125,-0.02797899954020977,0.01785299926996231,0.0037299999967217445,-2.700000047683716,-0.8999999761581421,57.900001525878906
1638389445.2516751,1638389445264198711,-0.49081000685691833,-0.0897819995880127,9.947871208190918,-0.029044000431895256,0.01785299926996231,0.004796000197529793,-2.700000047683716,-0.8999999761581421,57.900001525878906
1638389445.2563257,1638389445268422014,-0.5147510170936584,-0.10654199868440628,9.949068069458008,-0.02851100079715252,0.017587000504136086,0.0039969999343156815,-1.7999999523162842,-2.4000000953674316,58.20000076293945
1638389445.260412,1638389445273030964,-0.533905029296875,-0.10654199868440628,9.965827941894531,-0.02877799980342388,0.01785299926996231,0.003464000066742301,-1.7999999523162842,-2.4000000953674316,58.20000076293945
1638389445.2801282,1638389445292366345,-0.47404998540878296,-0.11611799895763397,9.95505428314209,-0.02931099943816662,0.01785299926996231,0.0026650000363588333,-1.7999999523162842,-2.4000000953674316,58.20000076293945
1638389445.2991688,1638389445311676359,-0.4692620038986206,-0.10294999927282333,9.95625114440918,-0.02877799980342388,0.018386000767350197,0.003464000066742301,-1.7999999523162842,-2.4000000953674316,58.20000076293945
1638389445.33858,1638389445351158153,-0.4776409864425659,-0.08858499675989151,9.98976993560791,-0.02877799980342388,0.01918499916791916,0.0039969999343156815,-1.7999999523162842,-2.4000000953674316,58.20000076293945
1638389445.3428867,1638389445355319787,-0.519540011882782,-0.07062900066375732,9.947871208190918,-0.028245000168681145,0.018386000767350197,0.0037299999967217445,-1.2000000476837158,-0.6000000238418579,58.79999923706055
1638389445.3604147,1638389445372893560,-0.48961201310157776,-0.11611799895763397,9.981389999389648,-0.029044000431895256,0.01785299926996231,0.004530000034719706,-1.2000000476837158,-0.6000000238418579,58.79999923706055
1638389445.3800802,1638389445392375876,-0.48123300075531006,-0.08858499675989151,9.950265884399414,-0.029044000431895256,0.017587000504136086,0.004263000097125769,-1.2000000476837158,-0.6000000238418579,58.79999923706055
1638389445.3994668,1638389445411654899,-0.4632759988307953,-0.12210399657487869,9.982586860656738,-0.029044000431895256,0.018386000767350197,0.0037299999967217445,-1.2000000476837158,-0.6000000238418579,58.79999923706055
1638389445.4392724,1638389445451183362,-0.49081000685691833,-0.09337399899959564,9.921534538269043,-0.029044000431895256,0.018651999533176422,0.003464000066742301,-1.2000000476837158,-0.6000000238418579,58.79999923706055
1638389445.4427242,1638389445455324943,-0.4944010078907013,-0.10294999927282333,9.996952056884766,-0.02851100079715252,0.01785299926996231,0.0039969999343156815,-1.5,0.30000001192092896,57.900001525878906
1638389445.4604416,1638389445472899133,-0.4932039976119995,-0.09337399899959564,9.98976993560791,-0.02851100079715252,0.018386000767350197,0.004263000097125769,-1.5,0.30000001192092896,57.900001525878906
1638389445.4799607,1638389445492291391,-0.5099629759788513,-0.09217599779367447,9.994558334350586,-0.028245000168681145,0.018919000402092934,0.004263000097125769,-1.5,0.30000001192092896,57.900001525878906
1638389445.4991584,1638389445511828085,-0.530314028263092,-0.11970999836921692,9.995755195617676,-0.028245000168681145,0.018386000767350197,0.004263000097125769,-1.5,0.30000001192092896,57.900001525878906
1638389445.5518491,1638389445564412418,-0.5099629759788513,-0.09457100182771683,9.919140815734863,-0.02877799980342388,0.01785299926996231,0.0037299999967217445,-1.5,0.30000001192092896,57.900001525878906
1638389445.556814,1638389445568417481,-0.484824001789093,-0.08499400317668915,9.961039543151855,-0.029044000431895256,0.018118999898433685,0.004263000097125769,-3.0,-0.6000000238418579,59.400001525878906
1638389445.5600986,1638389445572688183,-0.5003859996795654,-0.07781100273132324,10.030470848083496,-0.027712000533938408,0.018118999898433685,0.0039969999343156815,-3.0,-0.6000000238418579,59.400001525878906
1638389445.5797672,1638389445592341185,-0.502780020236969,-0.09217599779367447,9.976601600646973,-0.02877799980342388,0.01785299926996231,0.004263000097125769,-3.0,-0.6000000238418579,59.400001525878906
1638389445.5991201,1638389445611648699,-0.49679499864578247,-0.11611799895763397,9.975404739379883,-0.028245000168681145,0.017587000504136086,0.0039969999343156815,-3.0,-0.6000000238418579,59.400001525878906
1638389445.6407137,1638389445653377335,-0.4932039976119995,-0.11013299971818924,9.935900688171387,-0.02877799980342388,0.018118999898433685,0.0039969999343156815,-1.7999999523162842,-0.6000000238418579,58.79999923706055
1638389445.667217,1638389445679491159,-0.46447300910949707,-0.11133000254631042,9.973010063171387,-0.028245000168681145,0.018651999533176422,0.004263000097125769,-1.7999999523162842,-0.6000000238418579,58.79999923706055
1638389445.680021,1638389445692694693,-0.49679499864578247,-0.1209070011973381,9.983783721923828,-0.02851100079715252,0.018386000767350197,0.0039969999343156815,-1.7999999523162842,-0.6000000238418579,58.79999923706055
1638389445.6994565,1638389445712138048,-0.49679499864578247,-0.10294999927282333,9.894001960754395,-0.02851100079715252,0.018651999533176422,0.0039969999343156815,-1.7999999523162842,-0.6000000238418579,58.79999923706055
1638389445.7395306,1638389445751781101,-0.45729100704193115,-0.14245399832725525,9.964631080627441,-0.02851100079715252,0.018919000402092934,0.003464000066742301,-1.7999999523162842,-0.6000000238418579,58.79999923706055
1638389445.7430081,1638389445755683554,-0.4776409864425659,-0.09935899823904037,9.935900688171387,-0.02851100079715252,0.018386000767350197,0.0037299999967217445,-1.2000000476837158,-1.2000000476837158,57.599998474121094
1638389445.7609205,1638389445773416191,-0.4776409864425659,-0.10654199868440628,10.004135131835938,-0.027712000533938408,0.018118999898433685,0.004263000097125769,-1.2000000476837158,-1.2000000476837158,57.599998474121094
1638389445.78007,1638389445792614272,-0.5147510170936584,-0.10294999927282333,9.970616340637207,-0.02851100079715252,0.018386000767350197,0.003464000066742301,-1.2000000476837158,-1.2000000476837158,57.599998474121094
1638389445.799773,1638389445812303004,-0.48362699151039124,-0.061051998287439346,9.984981536865234,-0.02877799980342388,0.01785299926996231,0.0037299999967217445,-1.2000000476837158,-1.2000000476837158,57.599998474121094
1638389445.8585172,1638389445870965587,-0.49081000685691833,-0.11611799895763397,9.926323890686035,-0.028245000168681145,0.01785299926996231,0.004263000097125769,-1.2000000476837158,-1.2000000476837158,57.599998474121094
1638389445.861685,1638389445874167533,-0.5003859996795654,-0.11013299971818924,9.910760879516602,-0.02851100079715252,0.017587000504136086,0.003464000066742301,-1.7999999523162842,-1.2000000476837158,58.20000076293945
1638389445.8647792,1638389445877164416,-0.4944010078907013,-0.06224900111556053,9.95505428314209,-0.028245000168681145,0.018386000767350197,0.0037299999967217445,-1.7999999523162842,-1.2000000476837158,58.20000076293945
1638389445.880491,1638389445892937882,-0.5219339728355408,-0.09935899823904037,10.013711929321289,-0.02851100079715252,0.01705400086939335,0.002930999966338277,-1.7999999523162842,-1.2000000476837158,58.20000076293945
1638389445.900054,1638389445912569373,-0.4872179925441742,-0.0897819995880127,9.965827941894531,-0.028245000168681145,0.01785299926996231,0.0037299999967217445,-1.7999999523162842,-1.2000000476837158,58.20000076293945
1638389445.9529734,1638389445965006667,-0.519540011882782,-0.11133000254631042,9.919140815734863,-0.02877799980342388,0.017587000504136086,0.00506300013512373,-1.7999999523162842,-1.2000000476837158,58.20000076293945
1638389445.956556,1638389445969176791,-0.4764440059661865,-0.12449800223112106,9.95744800567627,-0.02877799980342388,0.017587000504136086,0.0039969999343156815,-2.0999999046325684,-2.0999999046325684,57.900001525878906
1638389445.9609225,1638389445973540363,-0.46566998958587646,-0.08858499675989151,10.006528854370117,-0.02851100079715252,0.016520999372005463,0.0039969999343156815,-2.0999999046325684,-2.0999999046325684,57.900001525878906
1638389445.9803834,1638389445992925902,-0.5255249738693237,-0.06823399662971497,9.974207878112793,-0.02797899954020977,0.018118999898433685,0.0039969999343156815,-2.0999999046325684,-2.0999999046325684,57.900001525878906
1638389446.000107,1638389446012713285,-0.5171459913253784,-0.11851300299167633,9.982586860656738,-0.028245000168681145,0.01918499916791916,0.0039969999343156815,-2.0999999046325684,-2.0999999046325684,57.900001525878906
1638389446.051447,1638389446063891811,-0.5279200077056885,-0.10294999927282333,9.973010063171387,-0.02931099943816662,0.01785299926996231,0.003464000066742301,-2.0999999046325684,-2.0999999046325684,57.900001525878906
1638389446.0559468,1638389446068248976,-0.5135539770126343,-0.12330099940299988,9.982586860656738,-0.02851100079715252,0.018118999898433685,0.003197999903932214,-1.7999999523162842,-2.4000000953674316,58.20000076293945
1638389446.0598786,1638389446072504885,-0.4788390100002289,-0.12808899581432343,9.977798461914062,-0.028245000168681145,0.017587000504136086,0.003464000066742301,-1.7999999523162842,-2.4000000953674316,58.20000076293945
1638389446.0800476,1638389446092357272,-0.5207369923591614,-0.10534399747848511,9.971813201904297,-0.02851100079715252,0.018386000767350197,0.003197999903932214,-1.7999999523162842,-2.4000000953674316,58.20000076293945
1638389446.1015646,1638389446114111013,-0.49799200892448425,-0.08738800138235092,9.945476531982422,-0.02851100079715252,0.017587000504136086,0.002930999966338277,-1.7999999523162842,-2.4000000953674316,58.20000076293945
1638389446.1413748,1638389446153834225,-0.5171459913253784,-0.08140300214290619,9.973010063171387,-0.028245000168681145,0.01785299926996231,0.003464000066742301,-2.700000047683716,-0.30000001192092896,59.099998474121094
1638389446.165193,1638389446174567076,-0.4692620038986206,-0.11611799895763397,9.98976993560791,-0.029044000431895256,0.017319999635219574,0.0039969999343156815,-2.700000047683716,-0.30000001192092896,59.099998474121094
1638389446.1801214,1638389446192654366,-0.505174994468689,-0.08020500093698502,9.981389999389648,-0.02877799980342388,0.018651999533176422,0.0039969999343156815,-2.700000047683716,-0.30000001192092896,59.099998474121094
1638389446.2028296,1638389446215077623,-0.4955979883670807,-0.1137240007519722,10.001740455627441,-0.027712000533938408,0.018118999898433685,0.002930999966338277,-2.700000047683716,-0.30000001192092896,59.099998474121094
1638389446.2404673,1638389446253026206,-0.4872179925441742,-0.09217599779367447,9.938294410705566,-0.02851100079715252,0.01785299926996231,0.0039969999343156815,-2.4000000953674316,-1.2000000476837158,59.400001525878906
1638389446.2606788,1638389446273119335,-0.47285300493240356,-0.08858499675989151,9.961039543151855,-0.029577000066637993,0.018386000767350197,0.0039969999343156815,-2.4000000953674316,-1.2000000476837158,59.400001525878906
1638389446.281005,1638389446292489821,-0.47285300493240356,-0.11731500178575516,10.004135131835938,-0.02797899954020977,0.017319999635219574,0.003197999903932214,-2.4000000953674316,-1.2000000476837158,59.400001525878906
1638389446.3042548,1638389446314789685,-0.502780020236969,-0.07661399990320206,9.952659606933594,-0.02851100079715252,0.017587000504136086,0.002930999966338277,-2.4000000953674316,-1.2000000476837158,59.400001525878906
1638389446.3542914,1638389446366865915,-0.4788390100002289,-0.11851300299167633,9.938294410705566,-0.028245000168681145,0.01705400086939335,0.003464000066742301,-1.7999999523162842,-1.7999999523162842,57.0
1638389446.3620465,1638389446374641600,-0.4776409864425659,-0.12808899581432343,10.022090911865234,-0.02851100079715252,0.01785299926996231,0.003464000066742301,-1.7999999523162842,-1.7999999523162842,57.0
1638389446.380433,1638389446393024584,-0.4955979883670807,-0.10175299644470215,9.996952056884766,-0.02851100079715252,0.01785299926996231,0.003464000066742301,-1.7999999523162842,-1.7999999523162842,57.0
1638389446.4002552,1638389446412387621,-0.5087659955024719,-0.09097900241613388,9.9694185256958,-0.02797899954020977,0.01918499916791916,0.003197999903932214,-1.7999999523162842,-1.7999999523162842,57.0
1638389446.4395866,1638389446451823577,-0.5123569965362549,-0.09457100182771683,9.970616340637207,-0.02851100079715252,0.018919000402092934,0.0037299999967217445,-1.7999999523162842,-1.7999999523162842,57.0
1638389446.4439085,1638389446455814108,-0.4932039976119995,-0.07781100273132324,9.9323091506958,-0.02797899954020977,0.017587000504136086,0.0039969999343156815,-0.6000000238418579,-1.7999999523162842,59.400001525878906
1638389446.4609263,1638389446473515023,-0.4872179925441742,-0.12449800223112106,9.937097549438477,-0.028245000168681145,0.017319999635219574,0.0039969999343156815,-0.6000000238418579,-1.7999999523162842,59.400001525878906
1638389446.4868097,1638389446499164653,-0.4932039976119995,-0.10175299644470215,9.980193138122559,-0.02851100079715252,0.017587000504136086,0.004796000197529793,-0.6000000238418579,-1.7999999523162842,59.400001525878906
1638389446.5030856,1638389446515474294,-0.4692620038986206,-0.08499400317668915,9.971813201904297,-0.028245000168681145,0.018651999533176422,0.0039969999343156815,-0.6000000238418579,-1.7999999523162842,59.400001525878906
1638389446.53928,1638389446551933370,-0.4955979883670807,-0.10654199868440628,9.984981536865234,-0.02931099943816662,0.018118999898433685,0.003464000066742301,-0.6000000238418579,-1.7999999523162842,59.400001525878906
1638389446.543342,1638389446555922181,-0.5099629759788513,-0.08499400317668915,9.951462745666504,-0.02851100079715252,0.01785299926996231,0.0039969999343156815,-2.0999999046325684,-1.5,58.5
1638389446.5619032,1638389446574396420,-0.515949010848999,-0.10654199868440628,9.945476531982422,-0.02851100079715252,0.017319999635219574,0.004263000097125769,-2.0999999046325684,-1.5,58.5
1638389446.5802116,1638389446592851959,-0.4944010078907013,-0.09097900241613388,9.945476531982422,-0.028245000168681145,0.018651999533176422,0.0037299999967217445,-2.0999999046325684,-1.5,58.5
1638389446.601812,1638389446614448556,-0.5003859996795654,-0.0897819995880127,9.95864486694336,-0.027712000533938408,0.018118999898433685,0.0037299999967217445,-2.0999999046325684,-1.5,58.5
1638389446.638747,1638389446651327081,-0.515949010848999,-0.11731500178575516,10.008923530578613,-0.028245000168681145,0.01785299926996231,0.003464000066742301,-2.0999999046325684,-1.5,58.5
1638389446.6426432,1638389446655267609,-0.5063719749450684,-0.0730229988694191,9.947871208190918,-0.028245000168681145,0.018386000767350197,0.004263000097125769,-3.9000000953674316,0.30000001192092896,56.69999694824219
1638389446.7253184,1638389446672932220,-0.4872179925441742,-0.11013299971818924,9.959842681884766,-0.02877799980342388,0.018118999898433685,0.0039969999343156815,-3.9000000953674316,0.30000001192092896,56.69999694824219
1638389446.728653,1638389446694544390,-0.5015829801559448,-0.10414700210094452,9.961039543151855,-0.028245000168681145,0.018386000767350197,0.003464000066742301,-3.9000000953674316,0.30000001192092896,56.69999694824219
1638389446.728694,1638389446713889666,-0.502780020236969,-0.10414700210094452,9.945476531982422,-0.028245000168681145,0.017587000504136086,0.0037299999967217445,-3.9000000953674316,0.30000001192092896,56.69999694824219
1638389446.7411878,1638389446753659182,-0.488415002822876,-0.10055600106716156,9.99216365814209,-0.02851100079715252,0.018118999898433685,0.004530000034719706,-7.5,3.299999952316284,57.29999923706055
1638389446.7609468,1638389446773490578,-0.5171459913253784,-0.11851300299167633,9.984981536865234,-0.02851100079715252,0.017587000504136086,0.002930999966338277,-7.5,3.299999952316284,57.29999923706055
1638389446.7825634,1638389446795137594,-0.4955979883670807,-0.12569500505924225,9.926323890686035,-0.02877799980342388,0.018118999898433685,0.003464000066742301,-7.5,3.299999952316284,57.29999923706055
1638389446.8017814,1638389446814410522,-0.48243001103401184,-0.09217599779367447,9.935900688171387,-0.028245000168681145,0.018118999898433685,0.0039969999343156815,-7.5,3.299999952316284,57.29999923706055
1638389446.8389478,1638389446851423586,-0.47285300493240356,-0.09576799720525742,9.970616340637207,-0.028245000168681145,0.018118999898433685,0.004263000097125769,-7.5,3.299999952316284,57.29999923706055
1638389446.8426507,1638389446855337966,-0.49799200892448425,-0.11013299971818924,9.95505428314209,-0.02851100079715252,0.01785299926996231,0.0037299999967217445,-9.0,4.199999809265137,56.400001525878906
1638389446.8626306,1638389446875237127,-0.49918898940086365,-0.09935899823904037,9.994558334350586,-0.028245000168681145,0.018386000767350197,0.0039969999343156815,-9.0,4.199999809265137,56.400001525878906
1638389446.881979,1638389446894536879,-0.49200698733329773,-0.11133000254631042,9.926323890686035,-0.02877799980342388,0.017587000504136086,0.003464000066742301,-9.0,4.199999809265137,56.400001525878906
1638389446.9016962,1638389446914315147,-0.5087659955024719,-0.09097900241613388,9.95625114440918,-0.02851100079715252,0.018386000767350197,0.0039969999343156815,-9.0,4.199999809265137,56.400001525878906
1638389446.9406989,1638389446953348842,-0.5063719749450684,-0.10773900151252747,10.002937316894531,-0.02851100079715252,0.018386000767350197,0.0039969999343156815,-9.0,4.199999809265137,56.400001525878906
1638389446.9446754,1638389446957288640,-0.5063719749450684,-0.10773900151252747,10.002937316894531,-0.02851100079715252,0.018386000767350197,0.003464000066742301,-7.800000190734863,3.5999999046325684,56.400001525878906
1638389446.962751,1638389446974907936,-0.47285300493240356,-0.08619099855422974,9.998148918151855,-0.02797899954020977,0.018386000767350197,0.0039969999343156815,-7.800000190734863,3.5999999046325684,56.400001525878906
1638389446.9820695,1638389446994376552,-0.4872179925441742,-0.11013299971818924,9.999346733093262,-0.029044000431895256,0.018118999898433685,0.0037299999967217445,-7.800000190734863,3.5999999046325684,56.400001525878906
1638389447.0031285,1638389447015473798,-0.5111600160598755,-0.09097900241613388,9.95505428314209,-0.02851100079715252,0.017587000504136086,0.003464000066742301,-7.800000190734863,3.5999999046325684,56.400001525878906
1638389447.0561297,1638389447068139381,-0.484824001789093,-0.08140300214290619,9.93350601196289,-0.028245000168681145,0.018118999898433685,0.0039969999343156815,-9.300000190734863,6.300000190734863,54.29999923706055
1638389447.063454,1638389447076018769,-0.5362989902496338,-0.08020500093698502,9.998148918151855,-0.02877799980342388,0.018118999898433685,0.004263000097125769,-9.300000190734863,6.300000190734863,54.29999923706055
1638389447.0821142,1638389447094379095,-0.502780020236969,-0.09457100182771683,9.980193138122559,-0.02877799980342388,0.01785299926996231,0.0039969999343156815,-9.300000190734863,6.300000190734863,54.29999923706055
1638389447.101976,1638389447114141996,-0.4944010078907013,-0.11731500178575516,9.964631080627441,-0.02877799980342388,0.017587000504136086,0.0037299999967217445,-9.300000190734863,6.300000190734863,54.29999923706055
1638389447.154897,1638389447166552513,-0.5135539770126343,-0.12330099940299988,10.017303466796875,-0.02877799980342388,0.01785299926996231,0.0037299999967217445,-8.699999809265137,6.300000190734863,54.900001525878906
1638389447.1626136,1638389447174921512,-0.5279200077056885,-0.08619099855422974,10.020894050598145,-0.02851100079715252,0.018386000767350197,0.0039969999343156815,-8.699999809265137,6.300000190734863,54.900001525878906
1638389447.1819782,1638389447194441275,-0.46686801314353943,-0.0646430030465126,10.02687931060791,-0.029843999072909355,0.018118999898433685,0.003464000066742301,-8.699999809265137,6.300000190734863,54.900001525878906
1638389447.2019525,1638389447214280639,-5.7281060218811035,0.0897819995880127,10.706830024719238,-0.014921999536454678,0.08100499957799911,0.007726999931037426,-8.699999809265137,6.300000190734863,54.900001525878906
1638389447.240953,1638389447253116145,-1.509539008140564,0.4357430040836334,10.380023002624512,-0.03437399864196777,0.012257000431418419,0.0039969999343156815,-8.699999809265137,6.300000190734863,54.900001525878906
1638389447.2447836,1638389447257037921,-3.20462703704834,0.09576799720525742,10.366854667663574,-0.04156799986958504,0.010924999602138996,-0.004796000197529793,-16.5,10.5,48.900001525878906
1638389447.2623763,1638389447274666852,-2.074568033218384,-0.23104000091552734,9.01653003692627,-0.049295999109745026,0.0026650000363588333,-0.004263000097125769,-16.5,10.5,48.900001525878906
1638389447.281861,1638389447294178334,-1.5526340007781982,-0.3986330032348633,9.878439903259277,-0.03304100036621094,0.015721000730991364,-0.003197999903932214,-16.5,10.5,48.900001525878906
1638389447.3045173,1638389447316475749,-1.8794410228729248,-0.5327079892158508,9.475019454956055,-0.03783800080418587,0.008793000131845474,-0.012790000066161156,-16.5,10.5,48.900001525878906
1638389447.3555984,1638389447366771411,-3.8582420349121094,-0.24540500342845917,9.743167877197266,-0.03890400007367134,0.03037700057029724,-0.011458000168204308,-18.0,14.399999618530273,48.0
1638389447.3632147,1638389447375331826,-3.713392972946167,0.08499400317668915,10.311788558959961,-0.020517999306321144,0.059953998774290085,-0.01065799966454506,-18.0,14.399999618530273,48.0
1638389447.3823547,1638389447394859507,-2.1870949268341064,-0.1448490023612976,9.557618141174316,-0.04423300176858902,-0.004796000197529793,-0.01119100023061037,-18.0,14.399999618530273,48.0
1638389447.4022079,1638389447414661369,-2.354688882827759,-0.2178719937801361,10.46262264251709,0.011723999865353107,0.007193999830633402,-0.01705400086939335,-18.0,14.399999618530273,48.0
1638389447.4412026,1638389447453503229,-2.9699959754943848,1.3503249883651733,11.071945190429688,0.0333079993724823,-0.04876299947500229,-0.009592999704182148,-18.0,14.399999618530273,48.0
1638389447.445153,1638389447457506833,-1.458063006401062,-2.518691062927246,8.47424602508545,-0.25926798582077026,0.050627999007701874,-0.044498998671770096,-22.200000762939453,7.800000190734863,46.79999923706055
1638389447.4626179,1638389447475326816,-2.601289987564087,-0.08619099855422974,10.283058166503906,0.13802799582481384,0.042899999767541885,-0.05888799950480461,-22.200000762939453,7.800000190734863,46.79999923706055
1638389447.4844818,1638389447496824240,-1.8746529817581177,-0.405815988779068,8.895623207092285,-0.04476600140333176,-0.019984999671578407,-0.037571001797914505,-22.200000762939453,7.800000190734863,46.79999923706055
1638389447.5042946,1638389447516583860,-0.8619089722633362,-0.1628050059080124,9.822175979614258,-0.03863700106739998,0.008793000131845474,-0.043699998408555984,-22.200000762939453,7.800000190734863,46.79999923706055
1638389447.5542977,1638389447566423820,-2.450455904006958,-0.420181006193161,10.498536109924316,0.017319999635219574,0.07993900030851364,-0.015188000164926052,-23.100000381469727,3.299999952316284,47.099998474121094
1638389447.5627415,1638389447574985485,-0.5710150003433228,0.3543410003185272,10.004135131835938,0.1468210071325302,0.044498998671770096,-0.01465499959886074,-23.100000381469727,3.299999952316284,47.099998474121094
1638389447.5817084,1638389447594396232,-1.8674700260162354,0.7038930058479309,10.323760032653809,0.07167799770832062,0.08739999681711197,-0.03703799843788147,-23.100000381469727,3.299999952316284,47.099998474121094
1638389447.6045573,1638389447616459207,-2.5282680988311768,0.18195900321006775,10.652960777282715,-0.06341800093650818,0.026112999767065048,-0.057022999972105026,-23.100000381469727,3.299999952316284,47.099998474121094
1638389447.654746,1638389447666497408,-1.8614850044250488,0.8607119917869568,10.135815620422363,-0.22436100244522095,-0.10791700333356857,-0.11990799754858017,-15.600000381469727,2.4000000953674316,54.60000228881836
1638389447.6624691,1638389447675005372,-2.643188953399658,0.013167999684810638,10.417133331298828,-0.26086699962615967,-0.15907800197601318,0.02638000063598156,-15.600000381469727,2.4000000953674316,54.60000228881836
1638389447.6848087,1638389447697277577,-0.8188139796257019,-0.9313409924507141,11.06117057800293,-0.12497100234031677,-0.09672600030899048,0.29524001479148865,-15.600000381469727,2.4000000953674316,54.60000228881836
1638389447.7668734,1638389447716495501,-0.5279200077056885,-0.13527199625968933,10.253130912780762,-0.11004900187253952,-0.05409200116991997,0.49935099482536316,-15.600000381469727,2.4000000953674316,54.60000228881836
1638389447.77014,1638389447766467865,-3.1890649795532227,-2.4157400131225586,9.694087028503418,-0.06981299817562103,0.009060000069439411,0.9240919947624207,-17.099998474121094,12.300000190734863,59.099998474121094
1638389447.7701578,1638389447775029269,-1.8291629552841187,-1.6926939487457275,9.42593765258789,-0.06181899830698967,0.018919000402092934,0.9795160293579102,-17.099998474121094,12.300000190734863,59.099998474121094
1638389447.7841384,1638389447796731392,-0.32920199632644653,-1.2593450546264648,9.768306732177734,-0.03570599853992462,-0.07221099734306335,0.9728540182113647,-17.099998474121094,12.300000190734863,59.099998474121094
1638389447.8044758,1638389447816865355,-0.8283910155296326,-3.2082180976867676,5.5042500495910645,-0.04263399913907051,0.02238300070166588,0.9829800128936768,-17.099998474121094,12.300000190734863,59.099998474121094
1638389447.8548925,1638389447867608177,-3.5110840797424316,-1.4712309837341309,9.870059967041016,0.021316999569535255,-0.06554999947547913,1.0650500059127808,-21.30000114440918,15.300000190734863,54.900001525878906
1638389447.8633418,1638389447876092338,-0.8475440144538879,-3.2297658920288086,8.133072853088379,-0.02158300019800663,-0.017587000504136086,1.050927996635437,-21.30000114440918,15.300000190734863,54.900001525878906
1638389447.8828304,1638389447895443603,-0.8966249823570251,-0.34356701374053955,11.431074142456055,0.0778070017695427,-0.08473499864339828,1.0157550573349,-21.30000114440918,15.300000190734863,54.900001525878906
1638389447.9054945,1638389447917001290,-0.3794800043106079,0.3663119971752167,10.307000160217285,0.0658160001039505,-0.10498599708080292,1.0738439559936523,-21.30000114440918,15.300000190734863,54.900001525878906
1638389447.9529586,1638389447965667957,-1.0055609941482544,-1.8435289859771729,11.980541229248047,-0.32854801416397095,0.2161010056734085,1.1687040328979492,-36.0,21.0,39.0
1638389447.9636595,1638389447976395157,-0.6093220114707947,-1.6783289909362793,11.933854103088379,0.05782200023531914,-0.04902900010347366,1.1433910131454468,-36.0,21.0,39.0
1638389447.9830124,1638389447995665949,0.4285610020160675,-1.0402770042419434,9.351716995239258,-0.0018649999983608723,-0.07194499671459198,1.104220986366272,-36.0,21.0,39.0
1638389448.0043595,1638389448017064980,3.6822690963745117,-2.0793559551239014,7.600365161895752,-0.13003399968147278,-0.06501699984073639,1.049062967300415,-36.0,21.0,39.0
1638389448.040241,1638389448051558372,2.070976972579956,0.42736300826072693,11.646551132202148,0.029044000431895256,0.021849999204277992,0.9014430046081543,-36.0,21.0,39.0
1638389448.0446944,1638389448057383117,1.9321140050888062,-1.0714010000228882,10.522477149963379,-0.012524000369012356,0.05409200116991997,0.9491389989852905,-27.899999618530273,5.099999904632568,47.099998474121094
1638389448.0630417,1638389448075484625,1.227023959159851,-0.502780020236969,9.624655723571777,-0.02558000013232231,-0.011990999802947044,0.8891850113868713,-27.899999618530273,5.099999904632568,47.099998474121094
1638389448.0850134,1638389448097087366,1.7669140100479126,-0.9876049757003784,9.950265884399414,-0.05116099864244461,0.018118999898433685,0.7815340161323547,-27.899999618530273,5.099999904632568,47.099998474121094
1638389448.1041677,1638389448116595930,1.5454519987106323,-0.5374959707260132,10.257919311523438,-0.019718000665307045,-0.004530000034719706,0.7229130268096924,-27.899999618530273,5.099999904632568,47.099998474121094
1638389448.1551814,1638389448167942949,0.8140259981155396,-0.7709299921989441,9.312212944030762,-0.02078399993479252,-0.020517999306321144,0.7389000058174133,-29.399999618530273,-6.0,46.20000076293945
1638389448.163327,1638389448175899737,0.6105189919471741,-0.7637479901313782,10.46022891998291,-0.04423300176858902,0.002930999966338277,0.7034609913825989,-29.399999618530273,-6.0,46.20000076293945
1638389448.1849027,1638389448197509613,1.4844000339508057,-0.052671998739242554,9.879636764526367,-0.03863700106739998,-0.01039199996739626,0.6523000001907349,-29.399999618530273,-6.0,46.20000076293945
1638389448.2070231,1638389448216874888,0.8643040060997009,-0.3902530074119568,9.947871208190918,-0.002930999966338277,0.013057000003755093,0.6653569936752319,-29.399999618530273,-6.0,46.20000076293945
1638389448.2409768,1638389448253651581,1.5358749628067017,-0.4297580122947693,10.046032905578613,-0.035172998905181885,-0.0007989999721758068,0.6064689755439758,-29.399999618530273,-6.0,46.20000076293945
1638389448.2453606,1638389448257646799,-0.1137240007519722,-0.9301440119743347,9.568391799926758,-0.032242000102996826,0.046098001301288605,0.5217339992523193,-31.799999237060547,0.6000000238418579,53.39999771118164
1638389448.263181,1638389448275880606,-0.10534399747848511,-0.5123569965362549,9.401995658874512,0.015987999737262726,0.03650499880313873,0.423675000667572,-31.799999237060547,0.6000000238418579,53.39999771118164
1638389448.2853315,1638389448297525537,-0.8870480060577393,0.4129979908466339,10.261510848999023,0.040768999606370926,0.03703799843788147,0.23128899931907654,-31.799999237060547,0.6000000238418579,53.39999771118164
1638389448.3044212,1638389448316859716,0.4776409864425659,0.09457100182771683,10.121450424194336,-0.002930999966338277,0.0247809998691082,0.0572890006005764,-31.799999237060547,0.6000000238418579,53.39999771118164
1638389448.35516,1638389448367808901,1.1911109685897827,-0.4525020122528076,9.285877227783203,-0.06368499994277954,0.018386000767350197,-0.062352001667022705,-23.100000381469727,-8.699999809265137,65.0999984741211
1638389448.3634803,1638389448376180503,-1.022320032119751,-0.6392499804496765,10.21123218536377,-0.001598999951966107,0.0333079993724823,-0.035172998905181885,-23.100000381469727,-8.699999809265137,65.0999984741211
1638389448.3853955,1638389448397855175,1.1312559843063354,-0.0035910001024603844,10.324956893920898,-0.01918499916791916,0.009060000069439411,-0.08420199900865555,-23.100000381469727,-8.699999809265137,65.0999984741211
1638389448.4046125,1638389448417233107,1.0247149467468262,-0.008379999548196793,9.921534538269043,-0.018386000767350197,0.0055959997698664665,-0.06448400020599365,-23.100000381469727,-8.699999809265137,65.0999984741211
1638389448.4392445,1638389448451925989,-0.016759000718593597,-0.052671998739242554,10.198064804077148,-0.01785299926996231,0.036772001534700394,-0.04902900010347366,-23.100000381469727,-8.699999809265137,65.0999984741211
1638389448.4500344,1638389448462611051,0.2992739975452423,-0.16639600694179535,10.046032905578613,-0.029044000431895256,0.017319999635219574,-0.07141199707984924,-27.30000114440918,-11.699999809265137,63.89999771118164
1638389448.4636648,1638389448476051523,0.9014139771461487,-0.19632400572299957,9.998148918151855,-0.022916000336408615,0.008527000434696674,-0.06421700119972229,-27.30000114440918,-11.699999809265137,63.89999771118164
1638389448.4848888,1638389448497660775,-0.10773900151252747,-0.39983001351356506,10.010120391845703,-0.02398199960589409,0.024248000234365463,-0.0418349988758564,-27.30000114440918,-11.699999809265137,63.89999771118164
1638389448.504444,1638389448516974224,0.03351899981498718,-0.12330099940299988,9.939491271972656,-0.022648999467492104,0.02558000013232231,-0.059154998511075974,-27.30000114440918,-11.699999809265137,63.89999771118164
1638389448.5557525,1638389448568165193,-0.009576999582350254,-0.10055600106716156,9.696480751037598,-0.030642999336123466,0.018386000767350197,-0.04636399820446968,-27.599998474121094,-10.800000190734863,63.0
1638389448.563726,1638389448576477052,-0.14365200698375702,-0.020351000130176544,10.169334411621094,-0.020517999306321144,0.025047000497579575,-0.046098001301288605,-27.599998474121094,-10.800000190734863,63.0
1638389448.5852582,1638389448597975673,-0.0287299994379282,-0.03351899981498718,9.949068069458008,-0.019718000665307045,0.01705400086939335,-0.04476600140333176,-27.599998474121094,-10.800000190734863,63.0
1638389448.60535,1638389448617907801,0.15921400487422943,-0.20590099692344666,9.841329574584961,-0.027712000533938408,0.016520999372005463,-0.042100999504327774,-27.599998474121094,-10.800000190734863,63.0
1638389448.6396394,1638389448651878352,-0.18794399499893188,-0.19991500675678253,9.941885948181152,-0.023448999971151352,0.01438899990171194,-0.0418349988758564,-27.599998474121094,-10.800000190734863,63.0
1638389448.6481667,1638389448657873679,0.1388629972934723,-0.14724299311637878,10.127435684204102,-0.029843999072909355,0.01465499959886074,-0.043699998408555984,-27.0,-5.400000095367432,59.400001525878906
1638389448.667712,1638389448679647314,1.7310010194778442,0.39264801144599915,11.252706527709961,-0.026645999401807785,-0.003464000066742301,-0.04343299940228462,-27.0,-5.400000095367432,59.400001525878906
1638389448.686614,1638389448699107803,2.5330560207366943,-0.5255249738693237,8.45030403137207,-0.07407700270414352,-0.07807400077581406,-0.03410699963569641,-27.0,-5.400000095367432,59.400001525878906
1638389448.70748,1638389448717056542,-0.27054399251937866,-0.27174100279808044,10.418330192565918,-0.040768999606370926,0.07967200130224228,-0.04902900010347366,-27.0,-5.400000095367432,59.400001525878906
1638389448.741654,1638389448753810161,0.8379679918289185,-0.06943199783563614,9.496565818786621,-0.06901399791240692,0.020251000300049782,-0.02797899954020977,-27.0,-5.400000095367432,59.400001525878906
1638389448.745439,1638389448758180191,-0.6093220114707947,-0.4764440059661865,10.261510848999023,-0.03623899817466736,0.021316999569535255,0.07141199707984924,-28.5,-2.0999999046325684,66.30000305175781
1638389448.7676053,1638389448779891792,-0.7637479901313782,-0.31363898515701294,9.431922912597656,-0.05116099864244461,0.016787000000476837,0.04556500166654587,-28.5,-2.0999999046325684,66.30000305175781
1638389448.7847364,1638389448797462281,-2.175123929977417,-0.1532279998064041,11.067156791687012,-0.04343299940228462,0.08686699718236923,0.0580889992415905,-28.5,-2.0999999046325684,66.30000305175781
1638389448.8040712,1638389448816775887,-0.1951269954442978,-0.4405309855937958,9.582756996154785,-0.04902900010347366,-0.01012600027024746,0.11484500020742416,-28.5,-2.0999999046325684,66.30000305175781
1638389448.8406117,1638389448853306942,-0.6069279909133911,-0.17238199710845947,10.129830360412598,-0.03943600133061409,0.009060000069439411,0.14815300703048706,-28.5,-2.0999999046325684,66.30000305175781
1638389448.8450253,1638389448857790467,-0.5123569965362549,0.029927000403404236,8.747183799743652,-0.03490699827671051,0.015721000730991364,0.11351300030946732,-25.200000762939453,0.6000000238418579,60.0
1638389448.8647964,1638389448877549097,-4.003089904785156,0.032322000712156296,11.119829177856445,-0.011458000168204308,0.12976700067520142,0.12417200207710266,-25.200000762939453,0.6000000238418579,60.0
1638389448.888509,1638389448900993761,-0.9026110172271729,-0.09816200286149979,10.247145652770996,-0.061553001403808594,0.018386000767350197,0.20997199416160583,-25.200000762939453,0.6000000238418579,60.0
1638389448.905327,1638389448918063130,-1.866273045539856,0.43334901332855225,10.502126693725586,-0.08926499634981155,0.040768999606370926,0.2614000141620636,-25.200000762939453,0.6000000238418579,60.0
1638389448.939819,1638389448952624389,-0.854727029800415,-0.27174100279808044,10.508111953735352,-0.155348002910614,0.10445299744606018,0.28404900431632996,-25.200000762939453,0.6000000238418579,60.0
1638389448.9464521,1638389448959297618,-0.03112499974668026,-0.7266380190849304,8.729227066040039,-0.12417200207710266,-0.025047000497579575,0.32242000102996826,-28.200000762939453,7.199999809265137,56.400001525878906
1638389448.9647527,1638389448976777998,-3.1304070949554443,-0.6332640051841736,9.838935852050781,-0.046098001301288605,0.055424001067876816,0.3554610013961792,-28.200000762939453,7.199999809265137,56.400001525878906
1638389448.985774,1638389448998519288,-2.671919107437134,-0.8894429802894592,10.593106269836426,-0.06448400020599365,0.05862199887633324,0.3972960114479065,-28.200000762939453,7.199999809265137,56.400001525878906
1638389449.0060318,1638389449018536369,-0.46447300910949707,0.0897819995880127,9.90118408203125,-0.006928000133484602,-0.0580889992415905,0.4196780025959015,-28.200000762939453,7.199999809265137,56.400001525878906
1638389449.0400748,1638389449052721357,-0.6392499804496765,-0.26216399669647217,9.220037460327148,-0.031975001096725464,0.01065799966454506,0.46257901191711426,-28.200000762939453,7.199999809265137,56.400001525878906
1638389449.0471282,1638389449059714498,-2.2888479232788086,-0.5566499829292297,9.80900764465332,-0.062352001667022705,0.05435800179839134,0.5012159943580627,-30.600000381469727,12.0,61.79999923706055
1638389449.1186085,1638389449079335463,-1.7537460327148438,-0.8631070256233215,9.983783721923828,-0.02877799980342388,-0.013322999700903893,0.5142729878425598,-30.600000381469727,12.0,61.79999923706055
1638389449.1297843,1638389449098083620,-2.324760913848877,-0.9888020157814026,8.67176628112793,0.05355900153517723,-0.06288500130176544,0.5305269956588745,-30.600000381469727,12.0,61.79999923706055
1638389449.1298428,1638389449117450821,-3.4871420860290527,-0.04908100143074989,10.910335540771484,0.15508100390434265,0.007993999868631363,0.5912799835205078,-30.600000381469727,12.0,61.79999923706055
1638389449.1542852,1638389449166274107,-3.6008660793304443,0.05865800008177757,9.974207878112793,-0.007993999868631363,0.01785299926996231,0.6517670154571533,-27.0,-1.7999999523162842,72.5999984741211
1638389449.1664054,1638389449178949277,-1.066612958908081,-0.7637479901313782,9.349323272705078,-0.08340299874544144,0.010924999602138996,0.707190990447998,-27.0,-1.7999999523162842,72.5999984741211
1638389449.185961,1638389449198422421,-1.9704209566116333,-0.2501929998397827,10.767882347106934,-0.06741499900817871,-0.009060000069439411,0.7404990196228027,-27.0,-1.7999999523162842,72.5999984741211
1638389449.2054055,1638389449217944266,-2.1643500328063965,-0.7326229810714722,10.019697189331055,-0.06288500130176544,0.026112999767065048,0.7738069891929626,-27.0,-1.7999999523162842,72.5999984741211
1638389449.2399666,1638389449252307493,-2.817965030670166,-1.3299740552902222,10.044836044311523,-0.043699998408555984,0.0162540003657341,0.8199049830436707,-27.0,-1.7999999523162842,72.5999984741211
1638389449.2465258,1638389449258962126,-1.0929490327835083,-1.06781005859375,9.087159156799316,-0.07381000369787216,-0.004263000097125769,0.8103119730949402,-34.79999923706055,1.7999999523162842,63.0
1638389449.2676237,1638389449279007281,-3.3865859508514404,-0.4692620038986206,11.177289009094238,-0.04663100093603134,0.012790000066161156,0.8670690059661865,-34.79999923706055,1.7999999523162842,63.0
1638389449.2859433,1638389449298413755,-1.2737109661102295,-0.46686801314353943,11.086310386657715,-0.030910000205039978,-0.01438899990171194,0.9494060277938843,-34.79999923706055,1.7999999523162842,63.0
1638389449.3053956,1638389449317823667,-1.210263967514038,-0.10055600106716156,9.861680030822754,-0.02078399993479252,-0.009859000332653522,0.9925730228424072,-34.79999923706055,1.7999999523162842,63.0
1638389449.3552482,1638389449366084943,-0.8595150113105774,-1.3180030584335327,9.328972816467285,-0.06102000176906586,-0.05222700163722038,1.1039539575576782,-33.900001525878906,11.699999809265137,61.500003814697266
1638389449.3663862,1638389449378925486,-1.0690070390701294,-0.10414700210094452,12.549161911010742,-0.06794799864292145,0.012524000369012356,1.1124809980392456,-33.900001525878906,11.699999809265137,61.500003814697266
1638389449.3881357,1638389449400176748,-1.3383539915084839,-1.629248023033142,8.41678524017334,-0.19132000207901,-0.13909299671649933,1.140192985534668,-33.900001525878906,11.699999809265137,61.500003814697266
1638389449.406572,1638389449418329769,-2.409754991531372,-1.119284987449646,8.574801445007324,-0.19158700108528137,0.03863700106739998,1.104753017425537,-33.900001525878906,11.699999809265137,61.500003814697266
1638389449.4407601,1638389449453382981,-1.175549030303955,-3.95161509513855,6.998226165771484,-0.14415599405765533,0.04822999984025955,1.1428580284118652,-33.900001525878906,11.699999809265137,61.500003814697266
1638389449.447274,1638389449459746140,-0.47404998540878296,0.3734939992427826,13.084263801574707,0.2621990144252777,0.0162540003657341,1.159911036491394,-29.399999618530273,10.200000762939453,69.0
1638389449.4673417,1638389449479486851,-0.5506640076637268,-0.8607119917869568,10.311788558959961,0.01012600027024746,-0.02797899954020977,1.1929529905319214,-29.399999618530273,10.200000762939453,69.0
1638389449.486622,1638389449499014530,-1.5251009464263916,-0.2573759853839874,11.21799087524414,-0.031975001096725464,0.08446899801492691,1.2529070377349854,-29.399999618530273,10.200000762939453,69.0
1638389449.5059586,1638389449518470902,-0.09935899823904037,-1.0749930143356323,9.136240005493164,-0.04423300176858902,-0.03730500116944313,1.2776880264282227,-29.399999618530273,10.200000762939453,69.0
1638389449.5409307,1638389449553395931,-0.12330099940299988,-1.387434959411621,9.962236404418945,-0.06634899973869324,-0.03490699827671051,1.3240519762039185,-29.399999618530273,10.200000762939453,69.0
1638389449.547377,1638389449559791592,-1.8698649406433105,-0.530314028263092,10.510506629943848,0.021316999569535255,0.01119100023061037,1.3781440258026123,-34.19999694824219,16.80000114440918,58.79999923706055
1638389449.5734127,1638389449579588087,-1.5514370203018188,-1.1803369522094727,10.08194637298584,-0.047697000205516815,0.0037299999967217445,1.4098529815673828,-34.19999694824219,16.80000114440918,58.79999923706055
1638389449.586778,1638389449599003989,-0.039503999054431915,-1.5191149711608887,9.995755195617676,-0.10978300124406815,-0.0037299999967217445,1.4117180109024048,-34.19999694824219,16.80000114440918,58.79999923706055
1638389449.6063693,1638389449618474737,-0.23702499270439148,-2.00992488861084,8.52212905883789,-0.0991239994764328,-0.004796000197529793,1.3991940021514893,-34.19999694824219,16.80000114440918,58.79999923706055
1638389449.6410978,1638389449653502323,-2.214627981185913,-2.0829479694366455,11.171303749084473,-0.07487600296735764,0.026112999767065048,1.3986610174179077,-34.19999694824219,16.80000114440918,58.79999923706055
1638389449.6480677,1638389449659988822,0.324413001537323,-1.726212978363037,9.743167877197266,-0.055424001067876816,-0.017587000504136086,1.3800090551376343,-24.600000381469727,9.0,68.39999389648438
1638389449.6677666,1638389449680106741,-1.10132896900177,-2.1260430812835693,9.67972183227539,-0.051426999270915985,0.03623899817466736,1.4082540273666382,-24.600000381469727,9.0,68.39999389648438
1638389449.6865492,1638389449698998188,-1.42215096950531,-2.4073610305786133,10.745137214660645,0.01065799966454506,0.004530000034719706,1.4572830200195312,-24.600000381469727,9.0,68.39999389648438
1638389449.706132,1638389449718423413,-0.5889710187911987,-1.7238190174102783,10.327350616455078,0.009325999766588211,-0.03943600133061409,1.496453046798706,-24.600000381469727,9.0,68.39999389648438
1638389449.7404976,1638389449752828881,-0.28850001096725464,-1.8040239810943604,9.006953239440918,-0.0666159987449646,-0.04503199830651283,1.5087109804153442,-24.600000381469727,9.0,68.39999389648438
1638389449.746567,1638389449759107661,-2.582137107849121,-1.7178330421447754,11.547192573547363,-0.07381000369787216,0.0495619997382164,1.5140399932861328,-23.700000762939453,15.300000190734863,60.900001525878906
1638389449.769544,1638389449778953794,-0.7254400253295898,-1.0761899948120117,11.083915710449219,-0.15454800426959991,-0.043699998408555984,1.475669026374817,-23.700000762939453,15.300000190734863,60.900001525878906
1638389449.7867897,1638389449798931393,-0.5578470230102539,-0.027533000335097313,12.111024856567383,-0.07487600296735764,-0.0005329999839887023,1.4730050563812256,-23.700000762939453,15.300000190734863,60.900001525878906
1638389449.8057954,1638389449818472510,-2.1655468940734863,-0.6607969999313354,10.351292610168457,-0.0333079993724823,0.06741499900817871,1.5084439516067505,-23.700000762939453,15.300000190734863,60.900001525878906
1638389449.854232,1638389449866598049,0.3148359954357147,-2.3127899169921875,9.327775001525879,0.05595700070261955,-0.03010999970138073,1.5628019571304321,-21.30000114440918,11.699999809265137,63.89999771118164
1638389449.866992,1638389449879365516,-2.4672160148620605,-2.5330560207366943,10.565572738647461,-0.04263399913907051,-0.05089399963617325,1.528694987297058,-21.30000114440918,11.699999809265137,63.89999771118164
1638389449.886775,1638389449899288633,0.4692620038986206,-2.240963935852051,9.764715194702148,-0.10365399718284607,-0.06181899830698967,1.5231000185012817,-21.30000114440918,11.699999809265137,63.89999771118164
1638389449.9065897,1638389449918811051,0.19871799647808075,-1.8327549695968628,9.661765098571777,-0.06821399927139282,-0.016787000000476837,1.5350899696350098,-21.30000114440918,11.699999809265137,63.89999771118164
1638389449.9406712,1638389449953200529,-1.635233998298645,-1.3072290420532227,10.96660041809082,-0.04396599903702736,0.08340299874544144,1.567865014076233,-21.30000114440918,11.699999809265137,63.89999771118164
1638389449.9482386,1638389449960101530,-0.2932890057563782,-2.9795730113983154,8.172576904296875,-0.18092800676822662,-0.02931099943816662,1.5777239799499512,-20.69999885559082,18.899999618530273,65.69999694824219
1638389449.9672503,1638389449979636605,-1.1683659553527832,-2.92690110206604,10.451848983764648,-0.022115999832749367,0.049295999109745026,1.6312830448150635,-20.69999885559082,18.899999618530273,65.69999694824219
1638389449.9876025,1638389449999484040,-0.5015829801559448,-1.9656319618225098,9.768306732177734,0.05569100007414818,0.003464000066742301,1.6011730432510376,-20.69999885559082,18.899999618530273,65.69999694824219
1638389450.0070775,1638389450019053648,0.33758100867271423,-1.9608440399169922,9.26552677154541,-0.06208600103855133,-0.06608299911022186,1.5550750494003296,-20.69999885559082,18.899999618530273,65.69999694824219
1638389450.0558589,1638389450068014595,0.29448598623275757,-2.0781590938568115,10.466214179992676,-0.09432800114154816,0.019984999671578407,1.5822540521621704,-25.200000762939453,21.0,53.39999771118164
1638389450.067876,1638389450080043062,0.23104000091552734,-0.8678950071334839,11.414314270019531,0.01705400086939335,0.02105100080370903,1.593979001045227,-25.200000762939453,21.0,53.39999771118164
1638389450.0909555,1638389450103405219,-1.5981240272521973,-2.7605040073394775,8.86928653717041,-0.17399999499320984,0.05409200116991997,1.622223973274231,-25.200000762939453,21.0,53.39999771118164
1638389450.1073544,1638389450119141857,-0.11970999836921692,-1.7908560037612915,10.522477149963379,-0.021849999204277992,0.011723999865353107,1.6406099796295166,-25.200000762939453,21.0,53.39999771118164
1638389450.1396642,1638389450152161468,1.2461769580841064,-2.1858980655670166,8.85372543334961,-0.014921999536454678,-0.06448400020599365,1.6387439966201782,-25.200000762939453,21.0,53.39999771118164
1638389450.14871,1638389450161048358,-2.118860960006714,-2.608473062515259,10.420723915100098,-0.07620800286531448,0.05329199880361557,1.6326160430908203,-32.10000228881836,22.5,52.5
1638389450.1680489,1638389450180395869,0.2681500017642975,-2.753321886062622,9.215248107910156,-0.05862199887633324,-0.08580099791288376,1.579056978225708,-32.10000228881836,22.5,52.5
1638389450.187893,1638389450200058607,-1.8638789653778076,-2.1942780017852783,10.672114372253418,-0.043699998408555984,0.009592999704182148,1.60303795337677,-32.10000228881836,22.5,52.5
1638389450.2076252,1638389450219899895,-0.4285610020160675,-1.8554999828338623,9.388827323913574,-0.021849999204277992,0.004796000197529793,1.6339479684829712,-32.10000228881836,22.5,52.5
1638389450.242641,1638389450254732469,0.26336100697517395,-2.8287389278411865,10.317773818969727,-0.07647500187158585,-0.024248000234365463,1.653933048248291,-32.10000228881836,22.5,52.5
1638389450.24923,1638389450261654043,-1.1982940435409546,-2.203855037689209,9.194897651672363,0.013057000003755093,0.042367998510599136,1.6472710371017456,-42.29999923706055,27.899999618530273,38.099998474121094
1638389450.2687774,1638389450281042130,-2.2170228958129883,-3.3255341053009033,10.281861305236816,-0.10818400233983994,0.0055959997698664665,1.6366130113601685,-42.29999923706055,27.899999618530273,38.099998474121094
1638389450.2885206,1638389450300629707,0.4788390100002289,-2.9699959754943848,8.309046745300293,-0.13349799811840057,-0.06208600103855133,1.610766053199768,-42.29999923706055,27.899999618530273,38.099998474121094
1638389450.307599,1638389450319974614,-1.595729947090149,-1.3168059587478638,11.397555351257324,0.04316699877381325,0.08020500093698502,1.5822540521621704,-42.29999923706055,27.899999618530273,38.099998474121094
1638389450.3543437,1638389450366533035,-0.4441229999065399,-3.27046799659729,8.262359619140625,-0.10312099754810333,-0.025047000497579575,1.6627260446548462,-47.70000076293945,12.899999618530273,35.10000228881836
1638389450.3688765,1638389450381561874,-1.663964033126831,-2.354688882827759,10.80738639831543,0.017587000504136086,0.04556500166654587,1.6949679851531982,-47.70000076293945,12.899999618530273,35.10000228881836
1638389450.388328,1638389450401078874,1.1336499452590942,-2.03147292137146,8.972237586975098,-0.10871700197458267,-0.027445999905467033,1.6677889823913574,-47.70000076293945,12.899999618530273,35.10000228881836
1638389450.407897,1638389450420646398,-1.1348470449447632,-1.6663579940795898,10.594303131103516,-0.10845000296831131,0.04583200067281723,1.6366130113601685,-47.70000076293945,12.899999618530273,35.10000228881836
1638389450.4415963,1638389450453546262,0.7589589953422546,-2.266103982925415,9.506142616271973,-0.08819899708032608,-0.043699998408555984,1.6094330549240112,-47.70000076293945,12.899999618530273,35.10000228881836
1638389450.4499352,1638389450462711865,-0.41898399591445923,-2.65037202835083,10.364460945129395,-0.04556500166654587,0.026645999401807785,1.6384780406951904,-42.89999771118164,11.699999809265137,42.29999923706055
1638389450.4675267,1638389450479998900,-0.1388629972934723,-1.3970119953155518,10.078354835510254,-0.0023980000987648964,0.01119100023061037,1.627020001411438,-42.89999771118164,11.699999809265137,42.29999923706055
1638389450.489003,1638389450501660392,-0.3064570128917694,-2.3211700916290283,11.353262901306152,-0.0005329999839887023,-0.040502000600099564,1.6675219535827637,-42.89999771118164,11.699999809265137,42.29999923706055
1638389450.5085523,1638389450520998215,-0.6428409814834595,-2.6096699237823486,8.791476249694824,-0.017587000504136086,-0.04716400057077408,1.6917699575424194,-42.89999771118164,11.699999809265137,42.29999923706055
1638389450.5553155,1638389450567774304,1.5909409523010254,-1.595729947090149,9.919140815734863,-0.150285005569458,-0.051426999270915985,1.6041040420532227,-45.29999923706055,8.699999809265137,38.70000076293945
1638389450.5680249,1638389450580607606,-1.440106987953186,-2.3379290103912354,10.524871826171875,-0.10711800307035446,0.042899999767541885,1.6454060077667236,-45.29999923706055,8.699999809265137,38.70000076293945
1638389450.5877917,1638389450600068979,-2.0159099102020264,-2.747335910797119,10.384811401367188,-0.03623899817466736,0.008793000131845474,1.65339994430542,-45.29999923706055,8.699999809265137,38.70000076293945
1638389450.609062,1638389450621671040,0.3495520055294037,-3.1016769409179688,8.458683013916016,-0.06634899973869324,-0.03810400143265724,1.6379450559616089,-45.29999923706055,8.699999809265137,38.70000076293945
1638389450.6451302,1638389450654522256,-0.7218490242958069,-1.9644349813461304,10.983359336853027,0.09166300296783447,0.0418349988758564,1.640076994895935,-45.29999923706055,8.699999809265137,38.70000076293945
1638389450.6624413,1638389450661463467,0.714667022228241,-2.5222818851470947,9.30143928527832,-0.06128599867224693,-0.1103150025010109,1.6374119520187378,-48.900001525878906,-6.900000095367432,35.10000228881836
1638389450.6683319,1638389450680893327,-0.3315959870815277,-2.5498149394989014,7.818236827850342,-0.116177998483181,-0.025313999503850937,1.6451389789581299,-48.900001525878906,-6.900000095367432,35.10000228881836
1638389450.6882043,1638389450700526687,-0.33638399839401245,-2.391798973083496,9.593530654907227,-0.08979800343513489,0.027445999905467033,1.6352800130844116,-48.900001525878906,-6.900000095367432,35.10000228881836
1638389450.711977,1638389450721823784,0.6009420156478882,-1.8327549695968628,10.538040161132812,-0.09166300296783447,0.022115999832749367,1.6531330347061157,-48.900001525878906,-6.900000095367432,35.10000228881836
1638389450.75617,1638389450768637739,-0.6919220089912415,-3.3015921115875244,10.055609703063965,-0.0333079993724823,0.007193999830633402,1.6949679851531982,-43.79999923706055,-12.0,44.400001525878906
1638389450.7686424,1638389450781349890,0.7170609831809998,-2.5162971019744873,9.565997123718262,0.05009499937295914,-0.05169399827718735,1.653933048248291,-43.79999923706055,-12.0,44.400001525878906
1638389450.788278,1638389450800805272,-0.8559240102767944,-1.8303600549697876,10.765488624572754,-0.06395100057125092,0.006395000033080578,1.6352800130844116,-43.79999923706055,-12.0,44.400001525878906
1638389450.810563,1638389450822423168,0.6177020072937012,-2.9532370567321777,8.160606384277344,-0.12417200207710266,-0.10045599937438965,1.6312830448150635,-43.79999923706055,-12.0,44.400001525878906
1638389450.8409615,1638389450852999416,-0.694316029548645,-2.416938066482544,9.352914810180664,-0.05489100143313408,0.04583200067281723,1.619825005531311,-43.79999923706055,-12.0,44.400001525878906
1638389450.8492856,1638389450861699994,-1.9907710552215576,-2.6312179565429688,9.659371376037598,-0.0325080007314682,0.06208600103855133,1.6025049686431885,-45.900001525878906,-21.30000114440918,44.10000228881836
1638389450.8685846,1638389450881111207,1.1396360397338867,-3.720576047897339,8.176168441772461,-0.10285499691963196,-0.1358959972858429,1.5979750156402588,-45.900001525878906,-21.30000114440918,44.10000228881836
1638389450.8881803,1638389450900710920,1.2545570135116577,-1.8782440423965454,10.042442321777344,0.05888799950480461,-0.07993900030851364,1.6384780406951904,-45.900001525878906,-21.30000114440918,44.10000228881836
1638389450.9097402,1638389450922179901,-1.0139410495758057,-3.2788469791412354,9.883228302001953,-0.0794060006737709,-0.051426999270915985,1.6291520595550537,-45.900001525878906,-21.30000114440918,44.10000228881836
1638389450.9404309,1638389450952745992,1.4257420301437378,-2.197869062423706,8.801053047180176,-0.06341800093650818,-0.13030000030994415,1.5739940404891968,-45.900001525878906,-21.30000114440918,44.10000228881836
1638389450.9490151,1638389450961618298,-1.3239890336990356,-2.183504104614258,11.064762115478516,-0.03277499973773956,-0.08100499957799911,1.600106954574585,-38.400001525878906,-31.200000762939453,52.79999923706055
1638389450.9684863,1638389450981005604,0.24660199880599976,-2.176321029663086,9.540858268737793,-0.08926499634981155,-0.10391999781131744,1.6088999509811401,-38.400001525878906,-31.200000762939453,52.79999923706055
1638389450.996693,1638389451002581101,-0.10294999927282333,-2.384615898132324,7.9702677726745605,-0.04902900010347366,-0.07913900166749954,1.6403429508209229,-38.400001525878906,-31.200000762939453,52.79999923706055
1638389451.0093484,1638389451021896267,-1.733396053314209,-2.3391261100769043,11.451424598693848,-0.014123000204563141,0.019718000665307045,1.676048994064331,-38.400001525878906,-31.200000762939453,52.79999923706055
1638389451.0532334,1638389451065780425,-0.04908100143074989,-0.8966249823570251,10.341715812683105,-0.026913000270724297,0.03783800080418587,1.6589950323104858,-37.20000076293945,-27.599998474121094,69.5999984741211
1638389451.070197,1638389451082998393,-0.22984300553798676,-3.20462703704834,9.943082809448242,-0.013856000266969204,0.03943600133061409,1.6302169561386108,-37.20000076293945,-27.599998474121094,69.5999984741211
1638389451.0902398,1638389451102976094,-0.3327929973602295,-3.0885090827941895,10.830131530761719,-0.07460899651050568,-0.00026599998818710446,1.6214239597320557,-37.20000076293945,-27.599998474121094,69.5999984741211
1638389451.1097581,1638389451122527001,0.03471599891781807,-0.8140259981155396,10.040047645568848,-0.02238300070166588,-0.008259999565780163,1.6478040218353271,-37.20000076293945,-27.599998474121094,69.5999984741211
1638389451.140362,1638389451153141479,0.21188600361347198,-2.511507987976074,9.70486068725586,-0.06448400020599365,0.017319999635219574,1.6781810522079468,-37.20000076293945,-27.599998474121094,69.5999984741211
1638389451.149051,1638389451161668714,-0.9445090293884277,-2.5737569332122803,9.710845947265625,-0.04396599903702736,0.05755599960684776,1.6656570434570312,-41.39999771118164,-24.600000381469727,78.5999984741211
1638389451.1710134,1638389451183346976,-0.16519899666309357,-2.943660020828247,9.843724250793457,-0.0743430033326149,0.05409200116991997,1.6675219535827637,-41.39999771118164,-24.600000381469727,78.5999984741211
1638389451.1922448,1638389451204622509,0.5279200077056885,-2.2182199954986572,9.86287784576416,-0.04743000119924545,-0.06981299817562103,1.6613940000534058,-41.39999771118164,-24.600000381469727,78.5999984741211
1638389451.2102392,1638389451222687398,-1.4484870433807373,-2.671919107437134,10.506915092468262,0.004263000097125769,0.035172998905181885,1.6669889688491821,-41.39999771118164,-24.600000381469727,78.5999984741211
1638389451.2541745,1638389451266914022,0.9516919851303101,-2.7808549404144287,9.534873008728027,-0.14788700640201569,-0.06208600103855133,1.6696540117263794,-40.20000076293945,-23.399999618530273,87.0
1638389451.2693644,1638389451281650709,0.7302290201187134,-2.795219898223877,9.896395683288574,0.03890400007367134,-0.049295999109745026,1.5462820529937744,-40.20000076293945,-23.399999618530273,87.0
1638389451.2934198,1638389451305924790,3.2561020851135254,0.3303990066051483,8.836965560913086,0.05755599960684776,-0.1119140014052391,1.2475769519805908,-40.20000076293945,-23.399999618530273,87.0
1638389451.3107352,1638389451323400637,5.276801109313965,-1.7657170295715332,9.453470230102539,-0.04902900010347366,-0.1308329999446869,1.0877000093460083,-40.20000076293945,-23.399999618530273,87.0
1638389451.3570724,1638389451368728675,4.085690021514893,-0.4716559946537018,9.131451606750488,-0.022916000336408615,0.004263000097125769,0.7580860257148743,-19.200000762939453,-15.600000381469727,99.0
1638389451.3709834,1638389451383441872,5.0290021896362305,-0.2908940017223358,10.263904571533203,0.0023980000987648964,0.008793000131845474,0.6360459923744202,-19.200000762939453,-15.600000381469727,99.0
1638389451.3924909,1638389451405318687,4.497490882873535,-0.20829500257968903,9.858089447021484,-0.024248000234365463,0.023448999971151352,0.581155002117157,-19.200000762939453,-15.600000381469727,99.0
1638389451.4104953,1638389451422752448,4.621988773345947,-0.7110750079154968,9.904775619506836,-0.04556500166654587,0.03410699963569641,0.5537089705467224,-19.200000762939453,-15.600000381469727,99.0
1638389451.4425561,1638389451455304843,4.044989109039307,-0.5973510146141052,9.835344314575195,-0.02797899954020977,-0.002131999935954809,0.5206680297851562,-19.200000762939453,-15.600000381469727,99.0
1638389451.4515316,1638389451463932344,3.8714098930358887,-0.6991040110588074,10.183699607849121,-0.030910000205039978,0.016520999372005463,0.46790799498558044,-12.600000381469727,-21.0,79.19999694824219
1638389451.4712684,1638389451483839260,4.806342124938965,-0.8451499938964844,9.490580558776855,-0.05435800179839134,0.0018649999983608723,0.40608900785446167,-12.600000381469727,-21.0,79.19999694824219
1638389451.4901662,1638389451502976343,4.491506099700928,-0.760155975818634,9.843724250793457,-0.031442999839782715,0.007993999868631363,0.3607900142669678,-12.600000381469727,-21.0,79.19999694824219
1638389451.5109184,1638389451523628456,4.599245071411133,-0.8894429802894592,10.02448558807373,-0.03277499973773956,0.01119100023061037,0.2973720133304596,-12.600000381469727,-21.0,79.19999694824219
1638389451.5535023,1638389451566204366,3.9444329738616943,-1.0929490327835083,10.018500328063965,-0.02638000063598156,0.016787000000476837,0.12790200114250183,-13.199999809265137,-27.599998474121094,73.19999694824219
1638389451.5682044,1638389451581005848,3.544603109359741,-0.9397209882736206,9.935900688171387,-0.029577000066637993,0.021849999204277992,0.04263399913907051,-13.199999809265137,-27.599998474121094,73.19999694824219
1638389451.5905235,1638389451603075434,1.7142419815063477,-0.2765290141105652,9.788657188415527,-0.018118999898433685,0.03277499973773956,-0.022115999832749367,-13.199999809265137,-27.599998474121094,73.19999694824219
1638389451.6096523,1638389451622390860,-0.09935899823904037,0.28730300068855286,10.2447509765625,0.007193999830633402,0.08153799921274185,-0.07327699661254883,-13.199999809265137,-27.599998474121094,73.19999694824219
1638389451.6412694,1638389451653976224,-0.9421150088310242,-0.6643890142440796,9.278694152832031,-0.004796000197529793,0.0948610007762909,-0.07594200223684311,-13.199999809265137,-27.599998474121094,73.19999694824219
1638389451.649528,1638389451662201671,-2.5857279300689697,-1.6783289909362793,8.538888931274414,-0.019718000665307045,0.03623899817466736,-0.06102000176906586,-13.5,-30.899999618530273,72.9000015258789
1638389451.6719248,1638389451684705343,-0.07541699707508087,-0.3016679883003235,9.978996276855469,-0.02238300070166588,0.02851100079715252,-0.07620800286531448,-13.5,-30.899999618530273,72.9000015258789
1638389451.6905565,1638389451703251613,-0.7541710138320923,-0.1616079956293106,10.140604019165039,-0.02851100079715252,0.017319999635219574,-0.07567500323057175,-13.5,-30.899999618530273,72.9000015258789
1638389451.7195442,1638389451728627003,-0.46447300910949707,-0.19153499603271484,9.80541706085205,-0.031176000833511353,0.017587000504136086,-0.05355900153517723,-13.5,-30.899999618530273,72.9000015258789
1638389451.7421725,1638389451753867335,-0.7338200211524963,-0.21427999436855316,10.014908790588379,-0.013322999700903893,0.02318199910223484,-0.04263399913907051,-13.5,-30.899999618530273,72.9000015258789
1638389451.749836,1638389451762451916,-0.6081249713897705,-0.18914100527763367,9.897592544555664,-0.015188000164926052,0.021849999204277992,-0.03410699963569641,-14.399999618530273,-28.799999237060547,75.5999984741211
1638389451.7795541,1638389451789420623,-0.6524180173873901,-0.002394000068306923,10.0496244430542,-0.016520999372005463,0.024514999240636826,-0.02398199960589409,-14.399999618530273,-28.799999237060547,75.5999984741211
1638389451.7901452,1638389451802900210,-0.6524180173873901,-0.14365200698375702,10.02448558807373,-0.019718000665307045,0.022916000336408615,-0.010924999602138996,-14.399999618530273,-28.799999237060547,75.5999984741211
1638389451.8097212,1638389451822464243,-0.484824001789093,-0.20470300316810608,9.973010063171387,-0.02398199960589409,0.02158300019800663,-0.002131999935954809,-14.399999618530273,-28.799999237060547,75.5999984741211
1638389451.8403895,1638389451853204041,-0.355538010597229,-0.027533000335097313,9.909564018249512,-0.0247809998691082,0.02238300070166588,0.008793000131845474,-14.399999618530273,-28.799999237060547,75.5999984741211
1638389451.8495436,1638389451862048063,-0.5781980156898499,-0.4129979908466339,9.937097549438477,-0.008259999565780163,0.018919000402092934,0.04476600140333176,-12.0,-27.599998474121094,74.4000015258789
1638389451.8710432,1638389451883812893,-0.5925629734992981,-0.5362989902496338,9.728802680969238,-0.0007989999721758068,0.02105100080370903,0.0007989999721758068,-12.0,-27.599998474121094,74.4000015258789
1638389451.8900783,1638389451902847783,-0.1616079956293106,0.42377200722694397,10.193276405334473,0.03304100036621094,0.035971999168395996,-0.04263399913907051,-12.0,-27.599998474121094,74.4000015258789
1638389451.909547,1638389451922444370,-0.39384499192237854,0.0287299994379282,10.217218399047852,-0.006128999870270491,0.023715000599622726,0.002930999966338277,-12.0,-27.599998474121094,74.4000015258789
1638389451.9540946,1638389451966889287,-0.30286499857902527,-0.1795639991760254,10.078354835510254,-0.02877799980342388,0.015987999737262726,0.012257000431418419,-12.600000381469727,-30.0,74.4000015258789
1638389451.970963,1638389451983660304,-0.3483549952507019,-0.26455798745155334,9.896395683288574,-0.026913000270724297,0.018919000402092934,0.015455000102519989,-12.600000381469727,-30.0,74.4000015258789
1638389451.9940464,1638389452002883745,-0.25498199462890625,-0.18914100527763367,9.983783721923828,-0.026913000270724297,0.017587000504136086,-0.002930999966338277,-12.600000381469727,-30.0,74.4000015258789
1638389452.0096357,1638389452022198649,-0.20949199795722961,-0.18435299396514893,9.904775619506836,-0.03010999970138073,0.01785299926996231,0.0007989999721758068,-12.600000381469727,-30.0,74.4000015258789
1638389452.0538175,1638389452066630439,-0.1460459977388382,-0.10414700210094452,10.044836044311523,-0.02877799980342388,0.018651999533176422,0.004263000097125769,-12.600000381469727,-30.0,74.4000015258789
1638389452.070667,1638389452083417966,-0.061051998287439346,-0.15083399415016174,9.959842681884766,-0.03010999970138073,0.01785299926996231,0.0023980000987648964,-12.600000381469727,-30.0,74.4000015258789
1638389452.091229,1638389452104095080,-0.052671998739242554,-0.14365200698375702,9.938294410705566,-0.02851100079715252,0.018919000402092934,0.004530000034719706,-12.600000381469727,-30.0,74.4000015258789
1638389452.1114278,1638389452124192526,-0.13527199625968933,-0.1460459977388382,10.001740455627441,-0.029044000431895256,0.018919000402092934,0.0037299999967217445,-12.600000381469727,-30.0,74.4000015258789
1638389452.1401665,1638389452152357703,-0.18195900321006775,-0.1544249951839447,9.95505428314209,-0.027445999905467033,0.017587000504136086,0.003197999903932214,-12.600000381469727,-30.0,74.4000015258789
1638389452.1511927,1638389452163799887,-0.28850001096725464,-0.1783670037984848,10.037653923034668,-0.018386000767350197,0.01918499916791916,0.015721000730991364,-12.0,-28.799999237060547,75.0
1638389452.169924,1638389452182630703,-0.4213779866695404,-0.324413001537323,10.04723072052002,-0.02318199910223484,0.02078399993479252,0.01119100023061037,-12.0,-28.799999237060547,75.0
1638389452.1924522,1638389452204305683,-0.2035059928894043,-0.11492100358009338,9.909564018249512,-0.013856000266969204,0.018919000402092934,-0.015188000164926052,-12.0,-28.799999237060547,75.0
1638389452.211441,1638389452223881590,-0.21188600361347198,-0.08020500093698502,9.982586860656738,-0.006661999970674515,0.019984999671578407,-0.009859000332653522,-12.0,-28.799999237060547,75.0
1638389452.2435381,1638389452256362106,-0.17477600276470184,0.04668699949979782,10.030470848083496,-0.00026599998818710446,0.02158300019800663,-0.010924999602138996,-12.0,-28.799999237060547,75.0
1638389452.2521417,1638389452264441816,-0.37708500027656555,-0.8391649723052979,9.804220199584961,-0.0055959997698664665,0.025846999138593674,-0.009592999704182148,-13.5,-27.30000114440918,74.0999984741211
1638389452.2722137,1638389452284992985,0.0562639981508255,-0.0730229988694191,9.785066604614258,-0.015721000730991364,0.02851100079715252,-0.014921999536454678,-13.5,-27.30000114440918,74.0999984741211
1638389452.2914789,1638389452304367215,-0.44891101121902466,-0.13527199625968933,10.15018081665039,-0.01945200003683567,0.01918499916791916,0.014123000204563141,-13.5,-27.30000114440918,74.0999984741211
1638389452.3107092,1638389452323459451,-0.08499400317668915,-0.1687909960746765,9.902381896972656,-0.02717900089919567,0.01918499916791916,0.0,-13.5,-27.30000114440918,74.0999984741211
1638389452.3995163,1638389452367806601,-0.2849090099334717,-0.009576999582350254,10.007725715637207,-0.02717900089919567,0.019984999671578407,0.0007989999721758068,-13.5,-29.100000381469727,72.9000015258789
1638389452.4029953,1638389452384714030,-0.3399749994277954,-0.18315599858760834,9.977798461914062,-0.026645999401807785,0.018651999533176422,0.006928000133484602,-13.5,-29.100000381469727,72.9000015258789
1638389452.4030058,1638389452404016173,-0.30286499857902527,-0.1376660019159317,10.004135131835938,-0.027712000533938408,0.018651999533176422,0.0039969999343156815,-13.5,-29.100000381469727,72.9000015258789
1638389452.4107766,1638389452423642240,-0.24660199880599976,-0.10654199868440628,9.935900688171387,-0.02877799980342388,0.017587000504136086,0.0037299999967217445,-13.5,-29.100000381469727,72.9000015258789
1638389452.4419918,1638389452454894928,-0.24660199880599976,-0.11133000254631042,10.020894050598145,-0.029577000066637993,0.018386000767350197,0.0039969999343156815,-13.5,-29.100000381469727,72.9000015258789
1638389452.4524627,1638389452465362684,-0.2825149893760681,-0.10175299644470215,10.08434009552002,-0.028245000168681145,0.018118999898433685,0.004530000034719706,-12.899999618530273,-28.5,73.5
1638389452.4719012,1638389452484755093,-0.2908940017223358,-0.11492100358009338,9.965827941894531,-0.02877799980342388,0.018651999533176422,0.003464000066742301,-12.899999618530273,-28.5,73.5
1638389452.4949346,1638389452507318298,-0.26455798745155334,-0.16639600694179535,9.967024803161621,-0.029044000431895256,0.018651999533176422,0.002930999966338277,-12.899999618530273,-28.5,73.5
1638389452.5114274,1638389452523623038,-0.23343400657176971,-0.14724299311637878,9.950265884399414,-0.02931099943816662,0.018386000767350197,0.002930999966338277,-12.899999618530273,-28.5,73.5
1638389452.55523,1638389452567872058,-0.2741349935531616,-0.0969650000333786,9.975404739379883,-0.02851100079715252,0.018386000767350197,0.003464000066742301,-13.199999809265137,-28.200000762939453,75.0
1638389452.5721056,1638389452584781519,-0.28730300068855286,-0.11731500178575516,10.04842758178711,-0.029044000431895256,0.01785299926996231,0.0026650000363588333,-13.199999809265137,-28.200000762939453,75.0
1638389452.5913432,1638389452604185282,-0.2681500017642975,-0.11731500178575516,9.952659606933594,-0.02931099943816662,0.017587000504136086,0.0039969999343156815,-13.199999809265137,-28.200000762939453,75.0
1638389452.6112757,1638389452623817807,-0.23822200298309326,-0.1364690065383911,9.917943954467773,-0.02877799980342388,0.01705400086939335,0.003464000066742301,-13.199999809265137,-28.200000762939453,75.0
1638389452.641618,1638389452654374364,-0.22026599943637848,-0.11851300299167633,9.928717613220215,-0.02851100079715252,0.017319999635219574,0.003197999903932214,-13.199999809265137,-28.200000762939453,75.0
1638389452.6523225,1638389452664926240,-0.2729380130767822,-0.12569500505924225,9.998148918151855,-0.029044000431895256,0.017319999635219574,0.003197999903932214,-12.600000381469727,-29.399999618530273,75.0
1638389452.6714337,1638389452684231508,-0.2980769872665405,-0.11731500178575516,10.019697189331055,-0.028245000168681145,0.018651999533176422,0.0018649999983608723,-12.600000381469727,-29.399999618530273,75.0
1638389452.693233,1638389452705774658,-0.2980769872665405,-0.11731500178575516,9.978996276855469,-0.02877799980342388,0.017587000504136086,0.003464000066742301,-12.600000381469727,-29.399999618530273,75.0
1638389452.7121959,1638389452725028673,-0.26216399669647217,-0.1544249951839447,9.908367156982422,-0.029577000066637993,0.01785299926996231,0.003464000066742301,-12.600000381469727,-29.399999618530273,75.0
1638389452.74051,1638389452753334430,-0.23702499270439148,-0.1544249951839447,9.978996276855469,-0.02877799980342388,0.016787000000476837,0.0039969999343156815,-12.600000381469727,-29.399999618530273,75.0
1638389452.7516346,1638389452764516080,-0.2609669864177704,-0.10055600106716156,9.947871208190918,-0.029044000431895256,0.01785299926996231,0.003464000066742301,-13.5,-29.700000762939453,74.70000457763672
1638389452.784547,1638389452797175771,-0.2777259945869446,-0.08379700034856796,10.029273986816406,-0.029577000066637993,0.018651999533176422,0.004263000097125769,-13.5,-29.700000762939453,74.70000457763672
1638389452.7944949,1638389452807131000,-0.29448598623275757,-0.08858499675989151,9.975404739379883,-0.02851100079715252,0.018118999898433685,0.0037299999967217445,-13.5,-29.700000762939453,74.70000457763672
1638389452.8115218,1638389452824003896,-0.25617900490760803,-0.15562300384044647,9.986178398132324,-0.02851100079715252,0.017319999635219574,0.0037299999967217445,-13.5,-29.700000762939453,74.70000457763672
1638389452.8545015,1638389452867231610,-0.2669529914855957,-0.09816200286149979,9.970616340637207,-0.02797899954020977,0.017587000504136086,0.0039969999343156815,-12.600000381469727,-27.0,73.80000305175781
1638389452.8728325,1638389452885254830,-0.27174100279808044,-0.0969650000333786,10.02328872680664,-0.029044000431895256,0.01785299926996231,0.003464000066742301,-12.600000381469727,-27.0,73.80000305175781
1638389452.8957255,1638389452906828138,-0.2932890057563782,-0.11133000254631042,9.980193138122559,-0.02851100079715252,0.018118999898433685,0.0039969999343156815,-12.600000381469727,-27.0,73.80000305175781
1638389452.9119751,1638389452924851148,-0.2932890057563782,-0.14005999267101288,9.970616340637207,-0.02851100079715252,0.018651999533176422,0.0039969999343156815,-12.600000381469727,-27.0,73.80000305175781
1638389452.939822,1638389452952684328,-0.2106889933347702,-0.12449800223112106,9.915549278259277,-0.02877799980342388,0.01705400086939335,0.003464000066742301,-12.600000381469727,-27.0,73.80000305175781
1638389452.9531763,1638389452965928121,-0.20949199795722961,-0.12330099940299988,9.951462745666504,-0.028245000168681145,0.017587000504136086,0.002930999966338277,-11.699999809265137,-29.700000762939453,74.70000457763672
1638389452.972551,1638389452985508768,-0.2501929998397827,-0.10055600106716156,10.011317253112793,-0.02851100079715252,0.01705400086939335,0.003197999903932214,-11.699999809265137,-29.700000762939453,74.70000457763672
1638389452.9945912,1638389453004600535,-0.2992739975452423,-0.08499400317668915,10.019697189331055,-0.028245000168681145,0.018919000402092934,0.0039969999343156815,-11.699999809265137,-29.700000762939453,74.70000457763672
1638389453.013886,1638389453026674286,-0.31124499440193176,-0.1209070011973381,10.012514114379883,-0.02851100079715252,0.018118999898433685,0.003464000066742301,-11.699999809265137,-29.700000762939453,74.70000457763672
1638389453.054012,1638389453066596350,-0.22505399584770203,-0.1364690065383911,9.975404739379883,-0.029044000431895256,0.01705400086939335,0.003197999903932214,-26.399999618530273,-21.0,71.4000015258789
1638389453.0723448,1638389453085155170,-0.2262510061264038,-0.22026599943637848,9.880833625793457,-0.029044000431895256,0.018919000402092934,0.0026650000363588333,-26.399999618530273,-21.0,71.4000015258789
1638389453.092026,1638389453104714722,-0.2920919954776764,-0.13168099522590637,9.98976993560791,-0.02717900089919567,0.01785299926996231,0.004530000034719706,-26.399999618530273,-21.0,71.4000015258789
1638389453.113908,1638389453126711593,-0.3160330057144165,-0.03711000084877014,10.035259246826172,-0.028245000168681145,0.018118999898433685,0.003464000066742301,-26.399999618530273,-21.0,71.4000015258789
1638389453.1398957,1638389453152386061,-0.34237000346183777,-0.07900799810886383,9.902381896972656,-0.03170900046825409,0.019984999671578407,0.002930999966338277,-26.399999618530273,-21.0,71.4000015258789
1638389453.1530635,1638389453165755953,-0.4153920114040375,-0.46566998958587646,9.252358436584473,-0.02797899954020977,0.018118999898433685,0.004530000034719706,-25.799999237060547,-19.200000762939453,72.0
1638389453.1722198,1638389453184962465,-1.7381839752197266,0.009576999582350254,9.563603401184082,0.003464000066742301,0.07674100250005722,-0.021316999569535255,-25.799999237060547,-19.200000762939453,72.0
1638389453.1937008,1638389453206553065,-0.22026599943637848,0.2657549977302551,10.11666202545166,-0.01039199996739626,-0.0026650000363588333,-0.05329199880361557,-25.799999237060547,-19.200000762939453,72.0
1638389453.213743,1638389453226212883,-0.41898399591445923,0.019153999164700508,10.281861305236816,-0.03410699963569641,0.02238300070166588,-0.0743430033326149,-25.799999237060547,-19.200000762939453,72.0
1638389453.2550018,1638389453267772952,0.16759300231933594,-0.07900799810886383,9.999346733093262,-0.023715000599622726,0.01918499916791916,-0.060752999037504196,-25.5,-16.5,63.30000305175781
1638389453.2719467,1638389453284861693,0.0897819995880127,-0.32800400257110596,10.087931632995605,-0.0325080007314682,0.018919000402092934,-0.054625000804662704,-25.5,-16.5,63.30000305175781
1638389453.295174,1638389453308072068,-0.2262510061264038,-0.21188600361347198,10.011317253112793,-0.018651999533176422,0.02717900089919567,-0.05116099864244461,-25.5,-16.5,63.30000305175781
1638389453.3133304,1638389453326234408,0.02154799923300743,-0.14005999267101288,10.012514114379883,-0.031442999839782715,0.015188000164926052,-0.05649000033736229,-25.5,-16.5,63.30000305175781
1638389453.355231,1638389453367909744,-3.1986420154571533,0.20111200213432312,10.104690551757812,-0.025047000497579575,0.048496000468730927,-0.04476600140333176,-27.899999618530273,-18.299999237060547,68.0999984741211
1638389453.372085,1638389453384971504,-3.3817970752716064,0.46447300910949707,10.693662643432617,-0.029577000066637993,0.05355900153517723,-0.09965699911117554,-27.899999618530273,-18.299999237060547,68.0999984741211
1638389453.3939185,1638389453406849776,-0.3974359929561615,0.16519899666309357,9.765913009643555,-0.01918499916791916,-0.012257000431418419,-0.14628799259662628,-27.899999618530273,-18.299999237060547,68.0999984741211
1638389453.4139194,1638389453426839142,-3.053792953491211,0.04788399860262871,10.012514114379883,-0.022648999467492104,0.06688199937343597,-0.16280899941921234,-27.899999618530273,-18.299999237060547,68.0999984741211
1638389453.4531875,1638389453466106900,-2.203855037689209,0.05386900156736374,10.27826976776123,-0.024514999240636826,0.01065799966454506,-0.26113298535346985,-31.799999237060547,-12.600000381469727,58.79999923706055
1638389453.5485718,1638389453485454201,0.12330099940299988,0.05027800053358078,9.949068069458008,-0.040768999606370926,-0.022648999467492104,-0.3272159993648529,-31.799999237060547,-12.600000381469727,58.79999923706055
1638389453.5545561,1638389453507041206,-0.6356580257415771,-0.44891101121902466,9.366082191467285,-0.040768999606370926,-0.00133200001437217,-0.3562600016593933,-31.799999237060547,-12.600000381469727,58.79999923706055
1638389453.5545695,1638389453526862126,-3.3494760990142822,-0.2920919954776764,9.762321472167969,-0.001598999951966107,0.0855339989066124,-0.3666520118713379,-31.799999237060547,-12.600000381469727,58.79999923706055
1638389453.554577,1638389453553181004,-1.6711469888687134,0.4369400143623352,10.482973098754883,0.02931099943816662,0.020251000300049782,-0.3906340003013611,-31.799999237060547,-12.600000381469727,58.79999923706055
1638389453.5545812,1638389453565998887,-0.035913001745939255,-0.019153999164700508,9.457061767578125,-0.040768999606370926,-0.027445999905467033,-0.4441930055618286,-32.10000228881836,-22.5,64.5
1638389453.5728207,1638389453585748970,-0.8571209907531738,-0.15681999921798706,9.86527156829834,-0.06395100057125092,0.03570599853992462,-0.4870930016040802,-32.10000228881836,-22.5,64.5
1638389453.5921261,1638389453604982619,-2.1715331077575684,0.15562300384044647,10.219612121582031,-0.026913000270724297,0.043699998408555984,-0.4809649884700775,-32.10000228881836,-22.5,64.5
1638389453.6161733,1638389453628711303,-0.6272789835929871,0.37828201055526733,9.718029022216797,-0.03650499880313873,0.0162540003657341,-0.48762598633766174,-32.10000228881836,-22.5,64.5
1638389453.6539161,1638389453666773266,-3.541011095046997,-0.5662270188331604,10.17531967163086,-0.0580889992415905,0.11244700103998184,-0.4902909994125366,-32.39999771118164,-16.19999885559082,62.400001525878906
1638389453.6732304,1638389453686188071,-0.8559240102767944,0.02154799923300743,10.753517150878906,0.051426999270915985,-0.025846999138593674,-0.5489130020141602,-32.39999771118164,-16.19999885559082,62.400001525878906
1638389453.6974692,1638389453710231460,-0.7014989852905273,-0.06703700125217438,9.152998924255371,0.015188000164926052,-0.029044000431895256,-0.59101402759552,-32.39999771118164,-16.19999885559082,62.400001525878906
1638389453.7135339,1638389453726433798,-1.7776880264282227,0.6248840093612671,9.472623825073242,-0.016520999372005463,0.049295999109745026,-0.6216570138931274,-32.39999771118164,-16.19999885559082,62.400001525878906
1638389453.7415,1638389453754388181,-0.5099629759788513,0.2825149893760681,9.951462745666504,0.015721000730991364,-0.012790000066161156,-0.612064003944397,-32.39999771118164,-16.19999885559082,62.400001525878906
1638389453.7544024,1638389453767245181,-1.3419450521469116,0.4704590141773224,10.108282089233398,-0.019984999671578407,0.040502000600099564,-0.6397759914398193,-28.799999237060547,-14.399999618530273,69.0
1638389453.773999,1638389453786818484,-1.3203970193862915,-0.1699880063533783,9.401995658874512,-0.026913000270724297,0.01039199996739626,-0.6586949825286865,-28.799999237060547,-14.399999618530273,69.0
1638389453.7933261,1638389453806082967,-2.30800199508667,0.955282986164093,10.62063980102539,0.05595700070261955,0.05329199880361557,-0.6904039978981018,-28.799999237060547,-14.399999618530273,69.0
1638389453.8132899,1638389453826057854,-0.694316029548645,0.8188139796257019,10.687676429748535,0.021849999204277992,0.020517999306321144,-0.7159850001335144,-28.799999237060547,-14.399999618530273,69.0
1638389453.854166,1638389453866971482,-1.2018849849700928,0.2837119996547699,10.363264083862305,-0.020251000300049782,0.03890400007367134,-0.7841989994049072,-24.0,-21.0,85.79999542236328
1638389453.8756814,1638389453887906213,-0.5003859996795654,0.7302290201187134,10.717604637145996,0.002131999935954809,0.017587000504136086,-0.8361589908599854,-24.0,-21.0,85.79999542236328
1638389453.893297,1638389453906057876,-0.5841829776763916,0.5590440034866333,9.2451753616333,-0.03996900096535683,0.05569100007414818,-0.8670690059661865,-24.0,-21.0,85.79999542236328
1638389453.9129362,1638389453925800458,-2.069780111312866,0.3268069922924042,9.658173561096191,-0.03970300033688545,0.05036100000143051,-0.8516139984130859,-24.0,-21.0,85.79999542236328
1638389453.940993,1638389453953787395,-1.234205961227417,0.8978220224380493,9.911958694458008,-0.02105100080370903,0.017587000504136086,-0.8774610161781311,-24.0,-21.0,85.79999542236328
1638389453.954223,1638389453966868574,-2.4600329399108887,0.2729380130767822,10.467411041259766,-0.031442999839782715,0.02318199910223484,-0.9131669998168945,-24.299999237060547,-19.5,83.69999694824219
1638389453.973641,1638389453986259158,-0.3172309994697571,0.8116310238838196,10.418330192565918,-0.044498998671770096,0.004796000197529793,-0.9603310227394104,-24.299999237060547,-19.5,83.69999694824219
1638389453.9998415,1638389454012403911,-0.7481849789619446,0.920566976070404,10.64458179473877,-0.01918499916791916,0.01705400086939335,-0.9435439705848694,-24.299999237060547,-19.5,83.69999694824219
1638389454.0142496,1638389454026139917,-1.0690070390701294,1.332368016242981,9.931112289428711,-0.008527000434696674,0.03410699963569641,-0.9307529926300049,-24.299999237060547,-19.5,83.69999694824219
1638389454.0409815,1638389454053885224,-0.9145820140838623,0.8750770092010498,9.99216365814209,-0.025846999138593674,0.06554999947547913,-0.9160979986190796,-24.299999237060547,-19.5,83.69999694824219
1638389454.0541782,1638389454067046563,-1.376660943031311,0.7326229810714722,10.091523170471191,0.003464000066742301,0.05009499937295914,-0.9238250255584717,-23.100000381469727,-6.900000095367432,84.30000305175781
1638389454.073723,1638389454086331725,-0.22385700047016144,0.3303990066051483,10.15137767791748,-0.03170900046825409,0.056223999708890915,-0.9883090257644653,-23.100000381469727,-6.900000095367432,84.30000305175781
1638389454.0933318,1638389454106203011,-0.7266380190849304,1.1037230491638184,10.431498527526855,0.049828000366687775,0.0666159987449646,-1.0426679849624634,-23.100000381469727,-6.900000095367432,84.30000305175781
1638389454.1155574,1638389454128377027,-2.309199094772339,0.9085959792137146,10.24355411529541,0.01918499916791916,0.08446899801492691,-1.0304100513458252,-23.100000381469727,-6.900000095367432,84.30000305175781
1638389454.1412668,1638389454153956071,-0.7350170016288757,1.4999619722366333,10.204050064086914,0.002930999966338277,0.04156799986958504,-1.018686056137085,-23.100000381469727,-6.900000095367432,84.30000305175781
1638389454.1544607,1638389454166986778,-0.648826003074646,0.6177020072937012,10.384811401367188,0.004796000197529793,0.0631520003080368,-1.0205509662628174,-21.30000114440918,-9.899999618530273,74.70000457763672
1638389454.1735682,1638389454186175476,-0.3711000084877014,0.7529739737510681,9.597122192382812,0.01065799966454506,0.006661999970674515,-1.0559910535812378,-21.30000114440918,-9.899999618530273,74.70000457763672
1638389454.1947627,1638389454207285319,-0.3339900076389313,1.022320032119751,9.204474449157715,-0.006661999970674515,0.028245000168681145,-1.0631849765777588,-21.30000114440918,-9.899999618530273,74.70000457763672
1638389454.2151263,1638389454227578712,-0.8798660039901733,1.4018000364303589,10.74633502960205,-0.019718000665307045,0.01065799966454506,-1.0541260242462158,-21.30000114440918,-9.899999618530273,74.70000457763672
1638389454.253901,1638389454266775735,0.2537840008735657,0.3806770145893097,8.797462463378906,-0.0495619997382164,0.05036100000143051,-1.0578559637069702,-25.200000762939453,-15.0,69.5999984741211
1638389454.2761614,1638389454288949282,-0.2190690040588379,0.8319820165634155,9.345731735229492,-0.013057000003755093,0.03996900096535683,-1.0858349800109863,-25.200000762939453,-15.0,69.5999984741211
1638389454.296438,1638389454308952190,-2.1679420471191406,0.7517769932746887,10.752320289611816,-0.001598999951966107,0.11058200150728226,-1.0725109577178955,-25.200000762939453,-15.0,69.5999984741211
1638389454.3163693,1638389454329047186,-0.6212930083274841,1.2210379838943481,9.92273235321045,-0.003197999903932214,0.018651999533176422,-1.0946279764175415,-25.200000762939453,-15.0,69.5999984741211
1638389454.3435335,1638389454355811868,0.3088510036468506,0.3711000084877014,8.975829124450684,0.01119100023061037,-0.004530000034719706,-1.086899995803833,-25.200000762939453,-15.0,69.5999984741211
1638389454.356864,1638389454369621784,-0.3459610044956207,0.8906400203704834,10.075960159301758,0.059953998774290085,0.011723999865353107,-1.1098159551620483,-23.100000381469727,-26.100000381469727,85.5
1638389454.375941,1638389454388537394,-1.2078700065612793,1.2126590013504028,9.5205078125,0.04130199924111366,0.015188000164926052,-1.1212739944458008,-23.100000381469727,-26.100000381469727,85.5
1638389454.3962562,1638389454408768387,-2.26370906829834,0.6883299946784973,10.826539993286133,0.02797899954020977,-0.013322999700903893,-1.0916969776153564,-23.100000381469727,-26.100000381469727,85.5
1638389454.4158208,1638389454428649570,-1.0797810554504395,0.8774719834327698,10.262707710266113,0.0410350002348423,-0.04716400057077408,-1.0948940515518188,-23.100000381469727,-26.100000381469727,85.5
1638389454.4562602,1638389454468563403,-1.2377979755401611,1.2844849824905396,9.90118408203125,-0.03010999970138073,0.007460999768227339,-1.168172001838684,-27.0,-26.100000381469727,85.5
1638389454.4611137,1638389454473668628,-1.2377979755401611,1.2844849824905396,9.90118408203125,-0.03010999970138073,0.007460999768227339,-1.168172001838684,-27.0,-17.399999618530273,90.5999984741211
1638389454.4778368,1638389454490126708,-0.49918898940086365,1.0606269836425781,10.265101432800293,-0.02851100079715252,0.029577000066637993,-1.176164984703064,-27.0,-17.399999618530273,90.5999984741211
1638389454.57769,1638389454508898508,-1.1180880069732666,1.5262980461120605,11.247918128967285,-0.009592999704182148,0.037571001797914505,-1.1375279426574707,-27.0,-17.399999618530273,90.5999984741211
1638389454.5822263,1638389454534955287,0.5758029818534851,0.6739649772644043,8.496990203857422,-0.09619300067424774,-0.002930999966338277,-1.1433910131454468,-27.0,-17.399999618530273,90.5999984741211
1638389454.582236,1638389454565858318,0.12689200043678284,1.199491024017334,9.856891632080078,-0.015455000102519989,0.05862199887633324,-1.1633750200271606,-27.0,-17.399999618530273,90.5999984741211
1638389454.5822697,1638389454569666806,-1.0271090269088745,0.6991040110588074,10.063989639282227,-0.029044000431895256,0.07887300103902817,-1.162842035293579,-22.80000114440918,-2.4000000953674316,91.20000457763672
1638389454.5822735,1638389454586907949,-1.3970119953155518,1.7836740016937256,11.72555923461914,0.09885799884796143,0.012524000369012356,-1.1607110500335693,-22.80000114440918,-2.4000000953674316,91.20000457763672
1638389454.5940874,1638389454606714753,0.6129130125045776,1.1097079515457153,9.39361572265625,0.08020500093698502,-0.011723999865353107,-1.191087007522583,-22.80000114440918,-2.4000000953674316,91.20000457763672
1638389454.6139152,1638389454626671201,-0.2777259945869446,1.2366009950637817,9.793445587158203,0.032242000102996826,0.0023980000987648964,-1.2044099569320679,-22.80000114440918,-2.4000000953674316,91.20000457763672
1638389454.6531494,1638389454666047712,-1.5083420276641846,1.4305299520492554,10.297423362731934,0.01358999963849783,0.06368499994277954,-1.1793630123138428,-22.80000114440918,-2.4000000953674316,91.20000457763672
1638389454.660561,1638389454670153612,-1.5765759944915771,1.6651610136032104,10.467411041259766,-0.04822999984025955,0.02638000063598156,-1.1279360055923462,-17.399999618530273,3.0,76.80000305175781
1638389454.6751657,1638389454687985205,1.321593999862671,0.6607969999313354,8.780702590942383,-0.07754100114107132,-0.05968799814581871,-1.1487200260162354,-17.399999618530273,3.0,76.80000305175781
1638389454.6943624,1638389454707322713,-0.8188139796257019,0.07062900066375732,9.5420560836792,-0.10711800307035446,0.042100999504327774,-1.1948180198669434,-17.399999618530273,3.0,76.80000305175781
1638389454.7146451,1638389454727319944,-0.06943199783563614,0.7876889705657959,10.33453369140625,-0.03996900096535683,0.05515800043940544,-1.2124040126800537,-17.399999618530273,3.0,76.80000305175781
1638389454.7431564,1638389454753158846,1.514327049255371,1.5155240297317505,9.838935852050781,-0.010924999602138996,-0.042367998510599136,-1.174833059310913,-17.399999618530273,3.0,76.80000305175781
1638389454.755972,1638389454768332429,1.8159949779510498,0.8427559733390808,9.52170467376709,-0.09512700140476227,0.007460999768227339,-1.0445330142974854,-16.19999885559082,-4.800000190734863,73.80000305175781
1638389454.7753723,1638389454787708585,2.325958013534546,1.2389949560165405,10.380023002624512,-0.08526799827814102,0.007460999768227339,-0.8385570049285889,-16.19999885559082,-4.800000190734863,73.80000305175781
1638389454.8716643,1638389454807111513,1.3527189493179321,-1.314411997795105,9.635429382324219,-0.11777599900960922,0.02931099943816662,-0.5238649845123291,-16.19999885559082,-4.800000190734863,73.80000305175781
1638389454.8751712,1638389454826949881,1.5813640356063843,-0.5626350045204163,9.64739990234375,0.0023980000987648964,-0.012524000369012356,-0.3519969880580902,-16.19999885559082,-4.800000190734863,73.80000305175781
1638389454.875199,1638389454853327354,2.75571608543396,0.22385700047016144,8.966252326965332,-0.023448999971151352,-0.02638000063598156,-0.2486090064048767,-16.19999885559082,-4.800000190734863,73.80000305175781
1638389454.8752673,1638389454868328793,2.6108670234680176,0.3303990066051483,9.803022384643555,-0.08393599838018417,0.009060000069439411,-0.09272900223731995,-21.0,-7.199999809265137,76.80000305175781
1638389454.878296,1638389454887832560,1.7082569599151611,-0.5937600135803223,10.127435684204102,-0.07407700270414352,0.006661999970674515,0.18092800676822662,-21.0,-7.199999809265137,76.80000305175781
1638389454.8984253,1638389454910634474,0.2837119996547699,-0.1795639991760254,10.431498527526855,-0.08313599973917007,0.01918499916791916,0.3384070098400116,-21.0,-7.199999809265137,76.80000305175781
1638389454.91467,1638389454927630917,0.22146299481391907,-0.8858510255813599,9.89879035949707,-0.09193000197410583,0.011458000168204308,0.5246649980545044,-21.0,-7.199999809265137,76.80000305175781
1638389454.9408715,1638389454953350750,1.4520779848098755,-1.2389949560165405,9.42833137512207,-0.10605199635028839,-0.00133200001437217,0.6720179915428162,-21.0,-7.199999809265137,76.80000305175781
1638389454.955836,1638389454968501208,1.2940609455108643,-1.0462620258331299,9.874848365783691,-0.056223999708890915,0.010924999602138996,0.7420979738235474,-27.599998474121094,-4.800000190734863,79.19999694824219
1638389454.9778495,1638389454987891426,1.2808929681777954,-0.5841829776763916,9.138633728027344,-0.025846999138593674,0.013057000003755093,0.6850749850273132,-27.599998474121094,-4.800000190734863,79.19999694824219
1638389454.997977,1638389455007833758,-0.32082200050354004,-0.9181730151176453,9.818584442138672,-0.06395100057125092,0.048496000468730927,0.6754819750785828,-27.599998474121094,-4.800000190734863,79.19999694824219
1638389455.0162501,1638389455028168611,1.0007729530334473,-0.2513900101184845,9.744364738464355,-0.017587000504136086,-0.008259999565780163,0.6920030117034912,-27.599998474121094,-4.800000190734863,79.19999694824219
1638389455.0551777,1638389455067375789,0.002394000068306923,-0.8068429827690125,10.292634963989258,-0.04556500166654587,0.030642999336123466,0.6738839745521545,-27.599998474121094,-4.800000190734863,79.19999694824219
1638389455.058438,1638389455071270166,0.3315959870815277,-0.5207369923591614,9.822175979614258,-0.03037700057029724,0.003464000066742301,0.6277859807014465,-37.20000076293945,-8.40000057220459,73.80000305175781
1638389455.0763955,1638389455088588605,0.7422000169754028,-0.2825149893760681,9.990966796875,-0.021316999569535255,0.02238300070166588,0.617127001285553,-37.20000076293945,-8.40000057220459,73.80000305175781
1638389455.1719522,1638389455108404523,0.7350170016288757,-0.4537000060081482,10.110676765441895,-0.027445999905467033,-0.002930999966338277,0.6128640174865723,-37.20000076293945,-8.40000057220459,73.80000305175781
1638389455.174408,1638389455127949541,1.0235170125961304,-0.20111200213432312,10.0496244430542,-0.03890400007367134,-0.018919000402092934,0.5427839756011963,-37.20000076293945,-8.40000057220459,73.80000305175781
