Time,time,accelX,accelY,accelZ,gyroX,gyroY,gyroZ,magX,magY,magZ
1638389111.2380643,1638389111230730731,-0.31842800974845886,-0.10175299644470215,9.983783721923828,-0.028245000168681145,0.01785299926996231,0.003464000066742301,6.599999904632568,9.0,83.4000015258789
1638389111.2421968,1638389111234911652,-0.324413001537323,-0.06943199783563614,9.999346733093262,-0.02797899954020977,0.01785299926996231,0.0039969999343156815,6.599999904632568,9.0,83.4000015258789
1638389111.2460327,1638389111238776697,-0.33638399839401245,-0.07422000169754028,10.014908790588379,-0.027712000533938408,0.018118999898433685,0.003197999903932214,6.599999904632568,9.0,83.4000015258789
1638389111.2663567,1638389111258979125,-0.3172309994697571,-0.07062900066375732,9.962236404418945,-0.02851100079715252,0.018118999898433685,0.0037299999967217445,6.599999904632568,9.0,83.4000015258789
1638389111.286067,1638389111278326179,-0.3256100118160248,-0.08379700034856796,9.965827941894531,-0.028245000168681145,0.01785299926996231,0.002930999966338277,6.0,8.40000057220459,81.60000610351562
1638389111.3398983,1638389111332525422,-0.28969699144363403,-0.052671998739242554,10.041245460510254,-0.02797899954020977,0.017587000504136086,0.003197999903932214,6.0,8.40000057220459,81.60000610351562
1638389111.3439808,1638389111336698217,-0.35314300656318665,-0.09816200286149979,9.986178398132324,-0.02797899954020977,0.01785299926996231,0.003464000066742301,6.0,8.40000057220459,81.60000610351562
1638389111.3917122,1638389111341034940,-0.3160330057144165,-0.07541699707508087,9.981389999389648,-0.02797899954020977,0.016787000000476837,0.002930999966338277,6.0,8.40000057220459,81.60000610351562
1638389111.3917289,1638389111358712396,-0.3016679883003235,-0.11013299971818924,9.941885948181152,-0.02797899954020977,0.017319999635219574,0.003464000066742301,6.0,8.40000057220459,81.60000610351562
1638389111.3917558,1638389111380236615,-0.3232159912586212,-0.057461000978946686,9.93350601196289,-0.02877799980342388,0.018118999898433685,0.003464000066742301,6.300000190734863,9.300000190734863,83.0999984741211
1638389111.426469,1638389111419039174,-0.2920919954776764,-0.10654199868440628,10.022090911865234,-0.02851100079715252,0.018386000767350197,0.003464000066742301,6.300000190734863,9.300000190734863,83.0999984741211
1638389111.4303844,1638389111423086588,-0.32920199632644653,-0.07781100273132324,9.981389999389648,-0.027712000533938408,0.01785299926996231,0.0039969999343156815,6.300000190734863,9.300000190734863,83.0999984741211
1638389111.4482293,1638389111440699921,-0.3399749994277954,-0.08738800138235092,9.9694185256958,-0.02797899954020977,0.01785299926996231,0.003197999903932214,6.300000190734863,9.300000190734863,83.0999984741211
1638389111.4658723,1638389111458504426,-0.3411720097064972,-0.10414700210094452,9.953856468200684,-0.02851100079715252,0.017319999635219574,0.003197999903932214,6.300000190734863,9.300000190734863,83.0999984741211
1638389111.4876053,1638389111480151629,-0.3172309994697571,-0.09457100182771683,10.012514114379883,-0.02797899954020977,0.018651999533176422,0.0037299999967217445,4.5,8.699999809265137,81.9000015258789
1638389111.5267072,1638389111519184584,-0.2837119996547699,-0.08858499675989151,10.000543594360352,-0.028245000168681145,0.018651999533176422,0.0039969999343156815,4.5,8.699999809265137,81.9000015258789
1638389111.5305343,1638389111523206577,-0.3232159912586212,-0.07062900066375732,9.973010063171387,-0.02717900089919567,0.01785299926996231,0.004530000034719706,4.5,8.699999809265137,81.9000015258789
1638389111.5480344,1638389111540758704,-0.3064570128917694,-0.06224900111556053,9.9694185256958,-0.02797899954020977,0.017587000504136086,0.004263000097125769,4.5,8.699999809265137,81.9000015258789
1638389111.5662148,1638389111559002174,-0.3327929973602295,-0.07541699707508087,9.990966796875,-0.028245000168681145,0.01705400086939335,0.003197999903932214,4.5,8.699999809265137,81.9000015258789
1638389111.5877728,1638389111580557542,-0.3064570128917694,-0.10534399747848511,10.014908790588379,-0.02851100079715252,0.018118999898433685,0.002930999966338277,5.099999904632568,9.300000190734863,83.0999984741211
1638389111.6400323,1638389111632537897,-0.31363898515701294,-0.05865800008177757,10.001740455627441,-0.02851100079715252,0.01705400086939335,0.002930999966338277,5.099999904632568,9.300000190734863,83.0999984741211
1638389111.6440485,1638389111636803047,-0.2992739975452423,-0.10175299644470215,9.988572120666504,-0.02797899954020977,0.01785299926996231,0.003197999903932214,5.099999904632568,9.300000190734863,83.0999984741211
1638389111.6482258,1638389111641085492,-0.3256100118160248,-0.07781100273132324,10.019697189331055,-0.02851100079715252,0.01705400086939335,0.0037299999967217445,5.099999904632568,9.300000190734863,83.0999984741211
1638389111.6684158,1638389111661106698,-0.33758100867271423,-0.09576799720525742,10.011317253112793,-0.02797899954020977,0.017587000504136086,0.0037299999967217445,5.099999904632568,9.300000190734863,83.0999984741211
1638389111.6875923,1638389111680373950,-0.31244200468063354,-0.11013299971818924,9.964631080627441,-0.028245000168681145,0.01785299926996231,0.0039969999343156815,5.099999904632568,9.899999618530273,81.9000015258789
1638389111.7269118,1638389111719694338,-0.3303990066051483,-0.11133000254631042,10.011317253112793,-0.029044000431895256,0.017587000504136086,0.003464000066742301,5.099999904632568,9.899999618530273,81.9000015258789
1638389111.7304683,1638389111723262573,-0.3303990066051483,-0.10534399747848511,9.970616340637207,-0.02851100079715252,0.01785299926996231,0.003197999903932214,5.099999904632568,9.899999618530273,81.9000015258789
1638389111.74839,1638389111741194803,-0.3232159912586212,-0.10654199868440628,9.962236404418945,-0.02797899954020977,0.017587000504136086,0.003197999903932214,5.099999904632568,9.899999618530273,81.9000015258789
1638389111.7682297,1638389111761047341,-0.28730300068855286,-0.10534399747848511,9.965827941894531,-0.02851100079715252,0.018118999898433685,0.003464000066742301,5.099999904632568,9.899999618530273,81.9000015258789
1638389111.7876506,1638389111780446224,-0.32800400257110596,-0.08259999752044678,9.99216365814209,-0.02851100079715252,0.018386000767350197,0.003197999903932214,6.599999904632568,10.800000190734863,84.0
1638389111.839842,1638389111832408608,-0.31244200468063354,-0.05985499918460846,10.007725715637207,-0.02851100079715252,0.017319999635219574,0.0039969999343156815,6.599999904632568,10.800000190734863,84.0
1638389111.8437023,1638389111836503736,-0.3004710078239441,-0.09816200286149979,10.022090911865234,-0.027712000533938408,0.017587000504136086,0.0039969999343156815,6.599999904632568,10.800000190734863,84.0
1638389111.848435,1638389111841184619,-0.3076539933681488,-0.0897819995880127,9.983783721923828,-0.028245000168681145,0.017587000504136086,0.004263000097125769,6.599999904632568,10.800000190734863,84.0
1638389111.8686986,1638389111861323810,-0.3232159912586212,-0.08858499675989151,9.990966796875,-0.028245000168681145,0.018386000767350197,0.0037299999967217445,6.599999904632568,10.800000190734863,84.0
1638389111.8883536,1638389111880434738,-0.3064570128917694,-0.09337399899959564,9.999346733093262,-0.02877799980342388,0.018386000767350197,0.0039969999343156815,4.800000190734863,7.800000190734863,82.19999694824219
1638389111.9404366,1638389111932623974,-0.3160330057144165,-0.10414700210094452,10.018500328063965,-0.028245000168681145,0.017587000504136086,0.0037299999967217445,4.800000190734863,7.800000190734863,82.19999694824219
1638389111.9444656,1638389111937304649,-0.29688000679016113,-0.08738800138235092,9.940689086914062,-0.02797899954020977,0.018118999898433685,0.003197999903932214,4.800000190734863,7.800000190734863,82.19999694824219
1638389111.9483845,1638389111941208033,-0.3220190107822418,-0.07900799810886383,9.971813201904297,-0.02797899954020977,0.017587000504136086,0.003464000066742301,4.800000190734863,7.800000190734863,82.19999694824219
1638389111.9683106,1638389111961080417,-0.3088510036468506,-0.08499400317668915,9.951462745666504,-0.02797899954020977,0.01785299926996231,0.0037299999967217445,4.800000190734863,7.800000190734863,82.19999694824219
1638389111.9875412,1638389111980326312,-0.3052600026130676,-0.09337399899959564,9.975404739379883,-0.02797899954020977,0.01785299926996231,0.003464000066742301,6.300000190734863,9.300000190734863,83.69999694824219
1638389112.0400329,1638389112032576527,-0.3052600026130676,-0.08858499675989151,10.000543594360352,-0.02797899954020977,0.018118999898433685,0.002131999935954809,6.300000190734863,9.300000190734863,83.69999694824219
1638389112.0445035,1638389112037147341,-0.3232159912586212,-0.07062900066375732,9.945476531982422,-0.029044000431895256,0.018386000767350197,0.0039969999343156815,6.300000190734863,9.300000190734863,83.69999694824219
1638389112.0483103,1638389112041176624,-0.3327929973602295,-0.08619099855422974,9.95625114440918,-0.028245000168681145,0.018118999898433685,0.004263000097125769,6.300000190734863,9.300000190734863,83.69999694824219
1638389112.0682578,1638389112061111035,-0.30406200885772705,-0.09337399899959564,9.967024803161621,-0.02797899954020977,0.018118999898433685,0.0037299999967217445,6.300000190734863,9.300000190734863,83.69999694824219
1638389112.0877452,1638389112080468129,-0.31962499022483826,-0.08858499675989151,9.995755195617676,-0.02797899954020977,0.017319999635219574,0.002930999966338277,5.099999904632568,9.300000190734863,83.69999694824219
1638389112.1405962,1638389112133343047,-0.3256100118160248,-0.10294999927282333,10.019697189331055,-0.028245000168681145,0.017319999635219574,0.003197999903932214,5.099999904632568,9.300000190734863,83.69999694824219
1638389112.1442785,1638389112137090783,-0.28969699144363403,-0.10294999927282333,10.007725715637207,-0.029044000431895256,0.016520999372005463,0.003197999903932214,5.099999904632568,9.300000190734863,83.69999694824219
1638389112.1487226,1638389112141407396,-0.2992739975452423,-0.09217599779367447,10.013711929321289,-0.02851100079715252,0.017587000504136086,0.0037299999967217445,5.099999904632568,9.300000190734863,83.69999694824219
1638389112.1685736,1638389112161114953,-0.31842800974845886,-0.08259999752044678,9.982586860656738,-0.02797899954020977,0.018386000767350197,0.0039969999343156815,5.099999904632568,9.300000190734863,83.69999694824219
1638389112.1878078,1638389112180470537,-0.3256100118160248,-0.10055600106716156,9.943082809448242,-0.028245000168681145,0.018919000402092934,0.0037299999967217445,7.5,9.899999618530273,81.9000015258789
1638389112.229152,1638389112221801166,-0.32082200050354004,-0.10055600106716156,9.935900688171387,-0.02797899954020977,0.018118999898433685,0.0023980000987648964,7.5,9.899999618530273,81.9000015258789
1638389112.248533,1638389112241344899,-0.3483549952507019,-0.09935899823904037,9.988572120666504,-0.02797899954020977,0.017319999635219574,0.003464000066742301,7.5,9.899999618530273,81.9000015258789
1638389112.2681944,1638389112261150282,-0.32920199632644653,-0.10414700210094452,9.980193138122559,-0.02797899954020977,0.017587000504136086,0.004263000097125769,7.5,9.899999618530273,81.9000015258789
1638389112.2877247,1638389112280531286,-0.31842800974845886,-0.1137240007519722,9.977798461914062,-0.028245000168681145,0.017587000504136086,0.0037299999967217445,6.300000190734863,8.699999809265137,83.69999694824219
1638389112.3424304,1638389112335268012,-0.3232159912586212,-0.0730229988694191,9.99216365814209,-0.02851100079715252,0.01705400086939335,0.0039969999343156815,6.300000190734863,8.699999809265137,83.69999694824219
1638389112.3490994,1638389112341397053,-0.3220190107822418,-0.06344600021839142,9.993361473083496,-0.028245000168681145,0.017587000504136086,0.002930999966338277,6.300000190734863,8.699999809265137,83.69999694824219
1638389112.368475,1638389112361296094,-0.34356701374053955,-0.09576799720525742,10.032865524291992,-0.028245000168681145,0.017319999635219574,0.0037299999967217445,6.300000190734863,8.699999809265137,83.69999694824219
1638389112.3879871,1638389112380769871,-0.33758100867271423,-0.07541699707508087,9.983783721923828,-0.02797899954020977,0.01785299926996231,0.003197999903932214,6.300000190734863,8.699999809265137,83.69999694824219
1638389112.4430397,1638389112435647866,-0.2920919954776764,-0.06344600021839142,10.017303466796875,-0.02877799980342388,0.018118999898433685,0.003197999903932214,6.300000190734863,8.699999809265137,83.69999694824219
1638389112.4488444,1638389112441683874,-0.3232159912586212,-0.09097900241613388,9.990966796875,-0.02797899954020977,0.018118999898433685,0.0039969999343156815,6.300000190734863,8.699999809265137,83.69999694824219
1638389112.468898,1638389112461501550,-0.324413001537323,-0.10055600106716156,9.996952056884766,-0.02797899954020977,0.01785299926996231,0.0037299999967217445,6.300000190734863,8.699999809265137,83.69999694824219
1638389112.4882586,1638389112481158059,-0.32920199632644653,-0.08020500093698502,9.995755195617676,-0.027712000533938408,0.017319999635219574,0.003197999903932214,6.900000095367432,8.09999942779541,83.69999694824219
1638389112.5416415,1638389112533677148,-0.3088510036468506,-0.09097900241613388,10.001740455627441,-0.028245000168681145,0.01785299926996231,0.0037299999967217445,6.900000095367432,8.09999942779541,83.69999694824219
1638389112.5453475,1638389112537949641,-0.31842800974845886,-0.09337399899959564,9.978996276855469,-0.027712000533938408,0.017319999635219574,0.003464000066742301,6.900000095367432,8.09999942779541,83.69999694824219
1638389112.5502942,1638389112542157177,-0.3471580147743225,-0.10294999927282333,10.007725715637207,-0.028245000168681145,0.017319999635219574,0.003464000066742301,6.900000095367432,8.09999942779541,83.69999694824219
1638389112.569541,1638389112562140240,-0.3268069922924042,-0.07541699707508087,10.018500328063965,-0.02851100079715252,0.017587000504136086,0.003464000066742301,6.900000095367432,8.09999942779541,83.69999694824219
1638389112.5888124,1638389112581503741,-0.31363898515701294,-0.09457100182771683,9.926323890686035,-0.02851100079715252,0.017319999635219574,0.002930999966338277,6.0,7.800000190734863,81.0
1638389112.6279247,1638389112620628244,-0.31004801392555237,-0.10654199868440628,10.007725715637207,-0.02797899954020977,0.01785299926996231,0.0023980000987648964,6.0,7.800000190734863,81.0
1638389112.6316428,1638389112624420986,-0.3651140034198761,-0.09217599779367447,9.968221664428711,-0.029044000431895256,0.017587000504136086,0.002930999966338277,6.0,7.800000190734863,81.0
1638389112.649017,1638389112641871839,-0.3303990066051483,-0.09217599779367447,9.998148918151855,-0.02877799980342388,0.01785299926996231,0.002930999966338277,6.0,7.800000190734863,81.0
1638389112.6692936,1638389112661634247,-0.32800400257110596,-0.0897819995880127,10.013711929321289,-0.028245000168681145,0.018118999898433685,0.0039969999343156815,6.0,7.800000190734863,81.0
1638389112.6909432,1638389112683382647,-0.3543410003185272,-0.0562639981508255,9.990966796875,-0.02797899954020977,0.01785299926996231,0.003197999903932214,6.300000190734863,9.899999618530273,80.70000457763672
1638389112.7304533,1638389112722377134,-0.3160330057144165,-0.06583999842405319,9.990966796875,-0.02797899954020977,0.018651999533176422,0.003197999903932214,6.300000190734863,9.899999618530273,80.70000457763672
1638389112.7493343,1638389112742196112,-0.3232159912586212,-0.11013299971818924,10.005331993103027,-0.02797899954020977,0.01785299926996231,0.003464000066742301,6.300000190734863,9.899999618530273,80.70000457763672
1638389112.7693293,1638389112762197250,-0.30286499857902527,-0.08140300214290619,9.921534538269043,-0.02797899954020977,0.018118999898433685,0.002930999966338277,6.300000190734863,9.899999618530273,80.70000457763672
1638389112.7898126,1638389112781544187,-0.3172309994697571,-0.10414700210094452,9.975404739379883,-0.027445999905467033,0.01785299926996231,0.002930999966338277,6.0,8.40000057220459,82.79999542236328
1638389112.9052181,1638389112836247107,-0.3052600026130676,-0.10773900151252747,9.975404739379883,-0.02877799980342388,0.018118999898433685,0.0037299999967217445,6.0,8.40000057220459,82.79999542236328
1638389112.9079008,1638389112842453710,-0.2825149893760681,-0.1137240007519722,9.927520751953125,-0.02877799980342388,0.01785299926996231,0.003464000066742301,6.0,8.40000057220459,82.79999542236328
1638389112.9079373,1638389112862288367,-0.31004801392555237,-0.08140300214290619,10.010120391845703,-0.02851100079715252,0.018651999533176422,0.002930999966338277,6.0,8.40000057220459,82.79999542236328
1638389112.907941,1638389112881632804,-0.324413001537323,-0.10534399747848511,9.908367156982422,-0.028245000168681145,0.018118999898433685,0.002930999966338277,7.199999809265137,9.600000381469727,84.0
1638389112.943481,1638389112936388804,-0.33638399839401245,-0.09097900241613388,9.967024803161621,-0.027712000533938408,0.017587000504136086,0.0037299999967217445,7.199999809265137,9.600000381469727,84.0
1638389112.9497962,1638389112942454138,-0.30406200885772705,-0.07661399990320206,10.030470848083496,-0.028245000168681145,0.017587000504136086,0.003197999903932214,7.199999809265137,9.600000381469727,84.0
1638389112.9695406,1638389112962417823,-0.3004710078239441,-0.10654199868440628,9.944279670715332,-0.028245000168681145,0.017319999635219574,0.003197999903932214,7.199999809265137,9.600000381469727,84.0
1638389112.9888165,1638389112981702200,-0.324413001537323,-0.09457100182771683,9.9323091506958,-0.028245000168681145,0.01785299926996231,0.002930999966338277,7.199999809265137,7.800000190734863,82.19999694824219
1638389113.0301373,1638389113022799661,-0.3064570128917694,-0.0730229988694191,9.982586860656738,-0.02717900089919567,0.018118999898433685,0.0026650000363588333,7.199999809265137,7.800000190734863,82.19999694824219
1638389113.049629,1638389113042384533,-0.30286499857902527,-0.08858499675989151,9.980193138122559,-0.028245000168681145,0.017319999635219574,0.0039969999343156815,7.199999809265137,7.800000190734863,82.19999694824219
1638389113.070216,1638389113063051579,-0.31842800974845886,-0.0730229988694191,9.963433265686035,-0.028245000168681145,0.018118999898433685,0.003197999903932214,7.199999809265137,7.800000190734863,82.19999694824219
1638389113.0890949,1638389113081934744,-0.3148359954357147,-0.10893599689006805,9.946674346923828,-0.029044000431895256,0.017319999635219574,0.002930999966338277,5.099999904632568,9.300000190734863,81.30000305175781
1638389113.133435,1638389113126194898,-0.3339900076389313,-0.1137240007519722,10.007725715637207,-0.02851100079715252,0.017587000504136086,0.002930999966338277,5.099999904632568,9.300000190734863,81.30000305175781
1638389113.1526322,1638389113144343018,-0.33518698811531067,-0.08858499675989151,9.981389999389648,-0.02851100079715252,0.017587000504136086,0.0037299999967217445,5.099999904632568,9.300000190734863,81.30000305175781
1638389113.171957,1638389113163947736,-0.32920199632644653,-0.08619099855422974,9.943082809448242,-0.02797899954020977,0.017587000504136086,0.003464000066742301,5.099999904632568,9.300000190734863,81.30000305175781
1638389113.193216,1638389113185202516,-0.3339900076389313,-0.06943199783563614,9.975404739379883,-0.02851100079715252,0.017587000504136086,0.0037299999967217445,5.699999809265137,8.09999942779541,81.30000305175781
1638389113.2454982,1638389113238018381,-0.324413001537323,-0.07422000169754028,10.031667709350586,-0.027712000533938408,0.01785299926996231,0.0039969999343156815,5.699999809265137,8.09999942779541,81.30000305175781
1638389113.2511806,1638389113242520485,-0.32082200050354004,-0.08619099855422974,9.995755195617676,-0.02797899954020977,0.018386000767350197,0.0037299999967217445,5.699999809265137,8.09999942779541,81.30000305175781
1638389113.2709005,1638389113263801465,-0.3172309994697571,-0.11970999836921692,10.018500328063965,-0.027712000533938408,0.018118999898433685,0.003464000066742301,5.699999809265137,8.09999942779541,81.30000305175781
1638389113.2932029,1638389113285902034,-0.324413001537323,-0.0562639981508255,10.004135131835938,-0.02797899954020977,0.018118999898433685,0.003464000066742301,6.300000190734863,8.09999942779541,81.30000305175781
1638389113.344524,1638389113336367485,-0.3303990066051483,-0.08020500093698502,9.975404739379883,-0.028245000168681145,0.018118999898433685,0.002930999966338277,6.300000190734863,8.09999942779541,81.30000305175781
1638389113.3489566,1638389113341880867,-0.3148359954357147,-0.09217599779367447,10.02328872680664,-0.02851100079715252,0.017587000504136086,0.003464000066742301,6.300000190734863,8.09999942779541,81.30000305175781
1638389113.3695707,1638389113362444827,-0.33518698811531067,-0.08738800138235092,9.947871208190918,-0.028245000168681145,0.018919000402092934,0.003197999903932214,6.300000190734863,8.09999942779541,81.30000305175781
1638389113.3913584,1638389113384166074,-0.31842800974845886,-0.09816200286149979,9.968221664428711,-0.02797899954020977,0.01705400086939335,0.003197999903932214,6.599999904632568,10.200000762939453,83.4000015258789
1638389113.4431236,1638389113436068433,-0.31363898515701294,-0.0969650000333786,9.967024803161621,-0.02797899954020977,0.018118999898433685,0.004263000097125769,6.599999904632568,10.200000762939453,83.4000015258789
1638389113.449454,1638389113442258728,-0.3303990066051483,-0.08858499675989151,9.951462745666504,-0.027712000533938408,0.018651999533176422,0.004263000097125769,6.599999904632568,10.200000762939453,83.4000015258789
1638389113.4692514,1638389113462132596,-0.31363898515701294,-0.0969650000333786,9.949068069458008,-0.027712000533938408,0.017587000504136086,0.0037299999967217445,6.599999904632568,10.200000762939453,83.4000015258789
1638389113.4915469,1638389113483601206,-0.2992739975452423,-0.08619099855422974,9.986178398132324,-0.02797899954020977,0.01785299926996231,0.003197999903932214,6.300000190734863,8.09999942779541,82.5
1638389113.5431824,1638389113535963522,-0.3303990066051483,-0.10893599689006805,9.978996276855469,-0.027712000533938408,0.018118999898433685,0.002930999966338277,6.300000190734863,8.09999942779541,82.5
1638389113.549426,1638389113542127407,-0.3172309994697571,-0.07182600349187851,9.939491271972656,-0.028245000168681145,0.018386000767350197,0.0037299999967217445,6.300000190734863,8.09999942779541,82.5
1638389113.5690706,1638389113562007057,-0.3148359954357147,-0.08020500093698502,10.007725715637207,-0.027712000533938408,0.01785299926996231,0.003197999903932214,6.300000190734863,8.09999942779541,82.5
1638389113.5906115,1638389113583605319,-0.324413001537323,-0.08619099855422974,9.951462745666504,-0.02797899954020977,0.017587000504136086,0.003197999903932214,6.300000190734863,9.899999618530273,84.9000015258789
1638389113.6297374,1638389113622656975,-0.3220190107822418,-0.07541699707508087,9.986178398132324,-0.028245000168681145,0.018386000767350197,0.002930999966338277,6.300000190734863,9.899999618530273,84.9000015258789
1638389113.6497161,1638389113642563869,-0.33518698811531067,-0.10414700210094452,9.973010063171387,-0.028245000168681145,0.017587000504136086,0.003197999903932214,6.300000190734863,9.899999618530273,84.9000015258789
1638389113.6696744,1638389113662330275,-0.3303990066051483,-0.09935899823904037,10.020894050598145,-0.02877799980342388,0.018118999898433685,0.0026650000363588333,6.300000190734863,9.899999618530273,84.9000015258789
1638389113.691521,1638389113684051730,-0.32920199632644653,-0.10055600106716156,9.959842681884766,-0.02797899954020977,0.01785299926996231,0.0037299999967217445,5.099999904632568,9.899999618530273,82.5
1638389113.73085,1638389113723428533,-0.28730300068855286,-0.10294999927282333,9.975404739379883,-0.028245000168681145,0.017587000504136086,0.002930999966338277,5.099999904632568,9.899999618530273,82.5
1638389113.7499032,1638389113742929279,-0.3160330057144165,-0.08858499675989151,10.007725715637207,-0.028245000168681145,0.018118999898433685,0.003197999903932214,5.099999904632568,9.899999618530273,82.5
1638389113.7700202,1638389113762875970,-0.3327929973602295,-0.09816200286149979,9.974207878112793,-0.02877799980342388,0.018118999898433685,0.0037299999967217445,5.099999904632568,9.899999618530273,82.5
1638389113.7917192,1638389113784612740,-0.3315959870815277,-0.052671998739242554,9.961039543151855,-0.028245000168681145,0.01918499916791916,0.003197999903932214,6.300000190734863,8.09999942779541,83.0999984741211
1638389113.8887615,1638389113824044706,-0.32082200050354004,-0.07541699707508087,10.011317253112793,-0.02797899954020977,0.018386000767350197,0.003197999903932214,6.300000190734863,8.09999942779541,83.0999984741211
1638389113.8975418,1638389113843939359,-0.2992739975452423,-0.0897819995880127,9.941885948181152,-0.028245000168681145,0.018118999898433685,0.003464000066742301,6.300000190734863,8.09999942779541,83.0999984741211
1638389113.8975644,1638389113863293159,-0.3088510036468506,-0.09816200286149979,9.93350601196289,-0.02877799980342388,0.018919000402092934,0.003197999903932214,6.300000190734863,8.09999942779541,83.0999984741211
1638389113.8976078,1638389113884920800,-0.3220190107822418,-0.07661399990320206,9.953856468200684,-0.027712000533938408,0.018386000767350197,0.0026650000363588333,5.400000095367432,7.199999809265137,82.79999542236328
1638389113.942282,1638389113935171431,-0.2992739975452423,-0.10055600106716156,9.980193138122559,-0.02851100079715252,0.018118999898433685,0.0039969999343156815,5.400000095367432,7.199999809265137,82.79999542236328
1638389113.9513803,1638389113944055362,-0.31004801392555237,-0.10654199868440628,9.964631080627441,-0.02797899954020977,0.018118999898433685,0.0037299999967217445,5.400000095367432,7.199999809265137,82.79999542236328
1638389113.9704375,1638389113963424841,-0.31363898515701294,-0.10294999927282333,10.006528854370117,-0.028245000168681145,0.01785299926996231,0.003464000066742301,5.400000095367432,7.199999809265137,82.79999542236328
1638389113.994548,1638389113985023051,-0.29448598623275757,-0.08858499675989151,9.953856468200684,-0.02797899954020977,0.017319999635219574,0.002930999966338277,7.199999809265137,9.0,83.4000015258789
1638389114.0294135,1638389114022143295,-0.29448598623275757,-0.10893599689006805,10.018500328063965,-0.02797899954020977,0.016787000000476837,0.003197999903932214,7.199999809265137,9.0,83.4000015258789
1638389114.0332193,1638389114026230758,-0.34237000346183777,-0.0969650000333786,9.980193138122559,-0.027712000533938408,0.01785299926996231,0.003464000066742301,7.199999809265137,9.0,83.4000015258789
1638389114.0509398,1638389114043940944,-0.3268069922924042,-0.08379700034856796,9.996952056884766,-0.02851100079715252,0.01785299926996231,0.003464000066742301,7.199999809265137,9.0,83.4000015258789
1638389114.0705454,1638389114063457930,-0.3327929973602295,-0.07781100273132324,9.988572120666504,-0.02877799980342388,0.01705400086939335,0.0039969999343156815,7.199999809265137,9.0,83.4000015258789
1638389114.09205,1638389114085090766,-0.31842800974845886,-0.08379700034856796,9.967024803161621,-0.028245000168681145,0.017587000504136086,0.0037299999967217445,6.900000095367432,9.300000190734863,82.5
1638389114.1432812,1638389114135139307,-0.31244200468063354,-0.07781100273132324,9.95625114440918,-0.02851100079715252,0.018386000767350197,0.003464000066742301,6.900000095367432,9.300000190734863,82.5
1638389114.1513336,1638389114144324730,-0.2932890057563782,-0.10654199868440628,9.986178398132324,-0.02797899954020977,0.01705400086939335,0.003197999903932214,6.900000095367432,9.300000190734863,82.5
1638389114.170472,1638389114163445674,-0.3064570128917694,-0.11492100358009338,9.95864486694336,-0.028245000168681145,0.01785299926996231,0.003197999903932214,6.900000095367432,9.300000190734863,82.5
1638389114.1927495,1638389114185075281,-0.32082200050354004,-0.08259999752044678,9.974207878112793,-0.02851100079715252,0.01785299926996231,0.0023980000987648964,5.699999809265137,11.699999809265137,83.69999694824219
1638389114.242127,1638389114235173203,-0.31842800974845886,-0.10175299644470215,10.012514114379883,-0.027712000533938408,0.018118999898433685,0.003464000066742301,5.699999809265137,11.699999809265137,83.69999694824219
1638389114.251172,1638389114244141670,-0.34476399421691895,-0.08020500093698502,10.000543594360352,-0.02851100079715252,0.018118999898433685,0.0037299999967217445,5.699999809265137,11.699999809265137,83.69999694824219
1638389114.2708166,1638389114263708611,-0.3016679883003235,-0.09935899823904037,9.95744800567627,-0.02851100079715252,0.01785299926996231,0.003464000066742301,5.699999809265137,11.699999809265137,83.69999694824219
1638389114.2921972,1638389114285252633,-0.33518698811531067,-0.09935899823904037,9.965827941894531,-0.028245000168681145,0.018386000767350197,0.002930999966338277,5.699999809265137,9.300000190734863,81.9000015258789
1638389114.3425612,1638389114335322218,-0.31842800974845886,-0.08020500093698502,9.984981536865234,-0.02877799980342388,0.018118999898433685,0.003464000066742301,5.699999809265137,9.300000190734863,81.9000015258789
1638389114.3511815,1638389114344235626,-0.3411720097064972,-0.0730229988694191,9.95625114440918,-0.02851100079715252,0.017587000504136086,0.0039969999343156815,5.699999809265137,9.300000190734863,81.9000015258789
1638389114.3710341,1638389114364007125,-0.3268069922924042,-0.07781100273132324,9.995755195617676,-0.028245000168681145,0.018118999898433685,0.0037299999967217445,5.699999809265137,9.300000190734863,81.9000015258789
1638389114.3928568,1638389114385478481,-0.3268069922924042,-0.07182600349187851,9.944279670715332,-0.028245000168681145,0.018919000402092934,0.003197999903932214,5.400000095367432,9.0,84.0
1638389114.4295743,1638389114422625435,-0.3088510036468506,-0.05865800008177757,10.012514114379883,-0.02851100079715252,0.017587000504136086,0.0023980000987648964,5.400000095367432,9.0,84.0
1638389114.4334354,1638389114426517403,-0.3016679883003235,-0.09935899823904037,10.014908790588379,-0.02797899954020977,0.017587000504136086,0.003197999903932214,5.400000095367432,9.0,84.0
1638389114.453386,1638389114446516484,-0.3232159912586212,-0.08738800138235092,9.980193138122559,-0.028245000168681145,0.01785299926996231,0.003464000066742301,5.400000095367432,9.0,84.0
1638389114.4727347,1638389114465629875,-0.31244200468063354,-0.09097900241613388,9.950265884399414,-0.027712000533938408,0.017587000504136086,0.0039969999343156815,5.400000095367432,9.0,84.0
1638389114.491953,1638389114485015281,-0.2992739975452423,-0.08858499675989151,9.978996276855469,-0.02877799980342388,0.017319999635219574,0.004263000097125769,5.699999809265137,8.09999942779541,82.5
1638389114.5332556,1638389114526347158,-0.3268069922924042,-0.0897819995880127,9.998148918151855,-0.028245000168681145,0.017587000504136086,0.002930999966338277,5.699999809265137,8.09999942779541,82.5
1638389114.5533495,1638389114546536055,-0.31124499440193176,-0.10175299644470215,9.941885948181152,-0.027712000533938408,0.017319999635219574,0.003197999903932214,5.699999809265137,8.09999942779541,82.5
1638389114.5728266,1638389114565929847,-0.31962499022483826,-0.11013299971818924,9.973010063171387,-0.02797899954020977,0.016787000000476837,0.0037299999967217445,5.699999809265137,8.09999942779541,82.5
1638389114.5923195,1638389114585425528,-0.3303990066051483,-0.10534399747848511,9.965827941894531,-0.028245000168681145,0.017587000504136086,0.0039969999343156815,6.300000190734863,9.300000190734863,81.9000015258789
1638389114.6427069,1638389114635737281,-0.3076539933681488,-0.0646430030465126,9.98976993560791,-0.028245000168681145,0.018118999898433685,0.0039969999343156815,6.300000190734863,9.300000190734863,81.9000015258789
1638389114.653987,1638389114646642460,-0.3052600026130676,-0.08738800138235092,9.987375259399414,-0.02851100079715252,0.016787000000476837,0.004796000197529793,6.300000190734863,9.300000190734863,81.9000015258789
1638389114.6729083,1638389114665866491,-0.30406200885772705,-0.08858499675989151,9.968221664428711,-0.02797899954020977,0.017319999635219574,0.0039969999343156815,6.300000190734863,9.300000190734863,81.9000015258789
1638389114.692064,1638389114685188243,-0.34356701374053955,-0.08020500093698502,10.005331993103027,-0.02851100079715252,0.01785299926996231,0.003464000066742301,6.0,9.0,83.4000015258789
1638389114.7424865,1638389114735594747,-0.3268069922924042,-0.08020500093698502,9.996952056884766,-0.028245000168681145,0.017587000504136086,0.0039969999343156815,6.0,9.0,83.4000015258789
1638389114.7533567,1638389114746484769,-0.3076539933681488,-0.1137240007519722,9.982586860656738,-0.027445999905467033,0.01785299926996231,0.0037299999967217445,6.0,9.0,83.4000015258789
1638389114.7726543,1638389114765743127,-0.3232159912586212,-0.11013299971818924,9.973010063171387,-0.028245000168681145,0.018386000767350197,0.0039969999343156815,6.0,9.0,83.4000015258789
1638389114.7921553,1638389114785338613,-0.31363898515701294,-0.08140300214290619,9.974207878112793,-0.027712000533938408,0.018386000767350197,0.003464000066742301,5.400000095367432,8.40000057220459,82.19999694824219
1638389114.8295631,1638389114822549793,-0.3256100118160248,-0.09097900241613388,9.995755195617676,-0.027445999905467033,0.017319999635219574,0.002930999966338277,5.400000095367432,8.40000057220459,82.19999694824219
1638389114.8337538,1638389114826500936,-0.2920919954776764,-0.07062900066375732,9.980193138122559,-0.02877799980342388,0.017587000504136086,0.002930999966338277,5.400000095367432,8.40000057220459,82.19999694824219
1638389114.853314,1638389114846427455,-0.3148359954357147,-0.0969650000333786,10.010120391845703,-0.028245000168681145,0.01785299926996231,0.0039969999343156815,5.400000095367432,8.40000057220459,82.19999694824219
1638389114.8727896,1638389114865757698,-0.33518698811531067,-0.08020500093698502,9.981389999389648,-0.02851100079715252,0.017587000504136086,0.003464000066742301,5.400000095367432,8.40000057220459,82.19999694824219
1638389114.8921788,1638389114885296457,-0.33518698811531067,-0.06703700125217438,9.980193138122559,-0.028245000168681145,0.018919000402092934,0.003197999903932214,6.900000095367432,9.899999618530273,82.5
1638389114.943001,1638389114935699002,-0.31124499440193176,-0.10414700210094452,9.95625114440918,-0.02851100079715252,0.018651999533176422,0.0037299999967217445,6.900000095367432,9.899999618530273,82.5
1638389114.9534075,1638389114946612204,-0.3052600026130676,-0.10175299644470215,9.994558334350586,-0.028245000168681145,0.017587000504136086,0.0037299999967217445,6.900000095367432,9.899999618530273,82.5
1638389114.9732144,1638389114965961199,-0.3256100118160248,-0.061051998287439346,9.982586860656738,-0.027445999905467033,0.017587000504136086,0.004263000097125769,6.900000095367432,9.899999618530273,82.5
1638389114.9944148,1638389114985445889,-0.3076539933681488,-0.0730229988694191,9.995755195617676,-0.028245000168681145,0.01785299926996231,0.003464000066742301,5.400000095367432,9.0,82.19999694824219
1638389115.0429265,1638389115036061617,-0.3268069922924042,-0.08738800138235092,9.968221664428711,-0.027712000533938408,0.01785299926996231,0.004263000097125769,5.400000095367432,9.0,82.19999694824219
1638389115.0534942,1638389115046702067,-0.324413001537323,-0.10414700210094452,9.967024803161621,-0.027712000533938408,0.01705400086939335,0.003464000066742301,5.400000095367432,9.0,82.19999694824219
1638389115.0728686,1638389115065872172,-0.33518698811531067,-0.08020500093698502,9.970616340637207,-0.028245000168681145,0.017319999635219574,0.003197999903932214,5.400000095367432,9.0,82.19999694824219
1638389115.0923958,1638389115085584640,-0.3411720097064972,-0.08858499675989151,9.983783721923828,-0.02851100079715252,0.01785299926996231,0.004530000034719706,5.099999904632568,8.699999809265137,83.0999984741211
1638389115.1297288,1638389115122649736,-0.3220190107822418,-0.09576799720525742,9.999346733093262,-0.02851100079715252,0.018651999533176422,0.0039969999343156815,5.099999904632568,8.699999809265137,83.0999984741211
1638389115.1334994,1638389115126646507,-0.3411720097064972,-0.11252699792385101,9.980193138122559,-0.027712000533938408,0.01705400086939335,0.0023980000987648964,5.099999904632568,8.699999809265137,83.0999984741211
1638389115.153532,1638389115146571398,-0.3256100118160248,-0.07062900066375732,9.999346733093262,-0.028245000168681145,0.017587000504136086,0.0037299999967217445,5.099999904632568,8.699999809265137,83.0999984741211
1638389115.1727064,1638389115165911421,-0.324413001537323,-0.08738800138235092,10.012514114379883,-0.029044000431895256,0.018118999898433685,0.003464000066742301,5.099999904632568,8.699999809265137,83.0999984741211
1638389115.1945066,1638389115187659206,-0.34356701374053955,-0.07781100273132324,9.965827941894531,-0.02797899954020977,0.017587000504136086,0.0026650000363588333,4.800000190734863,10.200000762939453,81.60000610351562
1638389115.242455,1638389115235687399,-0.31244200468063354,-0.061051998287439346,10.004135131835938,-0.02851100079715252,0.018118999898433685,0.003464000066742301,4.800000190734863,10.200000762939453,81.60000610351562
1638389115.253429,1638389115246663258,-0.2992739975452423,-0.06823399662971497,9.978996276855469,-0.028245000168681145,0.017587000504136086,0.0037299999967217445,4.800000190734863,10.200000762939453,81.60000610351562
1638389115.2727792,1638389115265968120,-0.29688000679016113,-0.10175299644470215,9.945476531982422,-0.028245000168681145,0.017319999635219574,0.003464000066742301,4.800000190734863,10.200000762939453,81.60000610351562
1638389115.2946036,1638389115287685380,-0.3315959870815277,-0.09935899823904037,9.998148918151855,-0.02797899954020977,0.016787000000476837,0.0039969999343156815,6.0,8.40000057220459,83.4000015258789
1638389115.34266,1638389115335768216,-0.3220190107822418,-0.09457100182771683,9.987375259399414,-0.028245000168681145,0.01945200003683567,0.003464000066742301,6.0,8.40000057220459,83.4000015258789
1638389115.3542402,1638389115346809031,-0.29448598623275757,-0.07781100273132324,9.974207878112793,-0.028245000168681145,0.01785299926996231,0.0039969999343156815,6.0,8.40000057220459,83.4000015258789
1638389115.3727145,1638389115365929442,-0.31962499022483826,-0.0897819995880127,9.976601600646973,-0.02877799980342388,0.018118999898433685,0.002930999966338277,6.0,8.40000057220459,83.4000015258789
1638389115.3947577,1638389115387793076,-0.3327929973602295,-0.09097900241613388,9.95864486694336,-0.02797899954020977,0.017587000504136086,0.003197999903932214,7.5,8.699999809265137,81.9000015258789
1638389115.442441,1638389115435720578,-0.3172309994697571,-0.09097900241613388,9.944279670715332,-0.028245000168681145,0.017587000504136086,0.003464000066742301,7.5,8.699999809265137,81.9000015258789
1638389115.4537475,1638389115446747069,-0.32800400257110596,-0.08738800138235092,10.02328872680664,-0.02797899954020977,0.017319999635219574,0.0039969999343156815,7.5,8.699999809265137,81.9000015258789
1638389115.473175,1638389115466026042,-0.3052600026130676,-0.08140300214290619,9.987375259399414,-0.02851100079715252,0.017319999635219574,0.0039969999343156815,7.5,8.699999809265137,81.9000015258789
1638389115.495047,1638389115487611150,-0.34356701374053955,-0.11013299971818924,9.976601600646973,-0.02877799980342388,0.017319999635219574,0.003197999903932214,6.900000095367432,9.899999618530273,81.9000015258789
1638389115.5294702,1638389115522740941,-0.31962499022483826,-0.10294999927282333,10.010120391845703,-0.02877799980342388,0.018118999898433685,0.0037299999967217445,6.900000095367432,9.899999618530273,81.9000015258789
1638389115.5334733,1638389115526721408,-0.29448598623275757,-0.08259999752044678,10.006528854370117,-0.02877799980342388,0.018386000767350197,0.0039969999343156815,6.900000095367432,9.899999618530273,81.9000015258789
1638389115.5533922,1638389115546588583,-0.30406200885772705,-0.06224900111556053,10.002937316894531,-0.028245000168681145,0.017587000504136086,0.003464000066742301,6.900000095367432,9.899999618530273,81.9000015258789
1638389115.5729017,1638389115566054144,-0.3459610044956207,-0.08858499675989151,9.98976993560791,-0.02797899954020977,0.018386000767350197,0.0039969999343156815,6.900000095367432,9.899999618530273,81.9000015258789
1638389115.595689,1638389115587904494,-0.3088510036468506,-0.07062900066375732,9.990966796875,-0.02851100079715252,0.018118999898433685,0.0037299999967217445,5.699999809265137,9.899999618530273,81.9000015258789
1638389115.642808,1638389115635926384,-0.32800400257110596,-0.08140300214290619,9.982586860656738,-0.027712000533938408,0.017319999635219574,0.0037299999967217445,5.699999809265137,9.899999618530273,81.9000015258789
1638389115.6537077,1638389115646862238,-0.3016679883003235,-0.11252699792385101,9.974207878112793,-0.028245000168681145,0.01785299926996231,0.003464000066742301,5.699999809265137,9.899999618530273,81.9000015258789
1638389115.6731617,1638389115666314567,-0.3064570128917694,-0.09935899823904037,9.950265884399414,-0.028245000168681145,0.01785299926996231,0.003197999903932214,5.699999809265137,9.899999618530273,81.9000015258789
1638389115.6947963,1638389115687920407,-0.3076539933681488,-0.06823399662971497,9.994558334350586,-0.02797899954020977,0.017587000504136086,0.004263000097125769,5.400000095367432,8.40000057220459,83.4000015258789
1638389115.742025,1638389115735174748,-0.3303990066051483,-0.10055600106716156,9.995755195617676,-0.028245000168681145,0.017587000504136086,0.003464000066742301,5.400000095367432,8.40000057220459,83.4000015258789
1638389115.7533693,1638389115746620356,-0.3016679883003235,-0.07182600349187851,10.000543594360352,-0.028245000168681145,0.018118999898433685,0.0037299999967217445,5.400000095367432,8.40000057220459,83.4000015258789
1638389115.7749102,1638389115767471253,-0.32920199632644653,-0.1137240007519722,9.964631080627441,-0.027712000533938408,0.017319999635219574,0.004263000097125769,5.400000095367432,8.40000057220459,83.4000015258789
1638389115.794123,1638389115787082666,-0.33638399839401245,-0.09457100182771683,9.984981536865234,-0.027445999905467033,0.01705400086939335,0.004263000097125769,5.699999809265137,9.899999618530273,81.9000015258789
1638389115.8299935,1638389115822969119,-0.3064570128917694,-0.07900799810886383,10.041245460510254,-0.02797899954020977,0.017587000504136086,0.003464000066742301,5.699999809265137,9.899999618530273,81.9000015258789
1638389115.8333113,1638389115826512706,-0.3160330057144165,-0.09457100182771683,9.988572120666504,-0.028245000168681145,0.01785299926996231,0.0037299999967217445,5.699999809265137,9.899999618530273,81.9000015258789
1638389115.8543622,1638389115847406317,-0.3088510036468506,-0.08858499675989151,10.011317253112793,-0.027712000533938408,0.01918499916791916,0.003197999903932214,5.699999809265137,9.899999618530273,81.9000015258789
1638389115.8758245,1638389115868774521,-0.33758100867271423,-0.09097900241613388,9.967024803161621,-0.028245000168681145,0.01785299926996231,0.004530000034719706,5.699999809265137,9.899999618530273,81.9000015258789
1638389115.8953335,1638389115888334104,-0.3256100118160248,-0.07781100273132324,9.99216365814209,-0.028245000168681145,0.01785299926996231,0.003464000066742301,5.699999809265137,9.300000190734863,83.0999984741211
1638389115.9332485,1638389115926220974,-0.3232159912586212,-0.08499400317668915,10.02328872680664,-0.028245000168681145,0.018386000767350197,0.0026650000363588333,5.699999809265137,9.300000190734863,83.0999984741211
1638389115.9354148,1638389115928343282,-0.2920919954776764,-0.08379700034856796,9.986178398132324,-0.02797899954020977,0.01785299926996231,0.004263000097125769,5.699999809265137,9.300000190734863,83.0999984741211
1638389115.957346,1638389115949892187,-0.31842800974845886,-0.0897819995880127,9.993361473083496,-0.027712000533938408,0.017587000504136086,0.003197999903932214,5.699999809265137,9.300000190734863,83.0999984741211
1638389115.9753675,1638389115968526806,-0.3459610044956207,-0.09816200286149979,10.004135131835938,-0.027712000533938408,0.01785299926996231,0.003464000066742301,5.699999809265137,9.300000190734863,83.0999984741211
1638389115.9966462,1638389115988554470,-0.32800400257110596,-0.0730229988694191,10.038850784301758,-0.027712000533938408,0.018386000767350197,0.003197999903932214,6.900000095367432,9.899999618530273,82.5
1638389116.045905,1638389116039018061,-0.3232159912586212,-0.10534399747848511,9.964631080627441,-0.028245000168681145,0.017319999635219574,0.002131999935954809,6.900000095367432,9.899999618530273,82.5
1638389116.0580235,1638389116051278403,-0.3495520055294037,-0.07781100273132324,9.951462745666504,-0.027712000533938408,0.017587000504136086,0.003464000066742301,6.900000095367432,9.899999618530273,82.5
1638389116.0781066,1638389116067481652,-0.3064570128917694,-0.10893599689006805,9.987375259399414,-0.027712000533938408,0.017319999635219574,0.003464000066742301,6.900000095367432,9.899999618530273,82.5
1638389116.093841,1638389116086988299,-0.3064570128917694,-0.05386900156736374,9.95625114440918,-0.028245000168681145,0.01785299926996231,0.004263000097125769,5.699999809265137,9.300000190734863,81.9000015258789
1638389116.1289866,1638389116121954609,-0.30406200885772705,-0.09816200286149979,10.000543594360352,-0.028245000168681145,0.018118999898433685,0.003464000066742301,5.699999809265137,9.300000190734863,81.9000015258789
1638389116.1351285,1638389116128163436,-0.3160330057144165,-0.055066000670194626,9.984981536865234,-0.027712000533938408,0.017587000504136086,0.003464000066742301,5.699999809265137,9.300000190734863,81.9000015258789
1638389116.15544,1638389116148728033,-0.32920199632644653,-0.0969650000333786,9.984981536865234,-0.02797899954020977,0.018386000767350197,0.003464000066742301,5.699999809265137,9.300000190734863,81.9000015258789
1638389116.1746306,1638389116167374932,-0.31962499022483826,-0.09935899823904037,9.974207878112793,-0.02851100079715252,0.01785299926996231,0.0026650000363588333,5.699999809265137,9.300000190734863,81.9000015258789
1638389116.1938705,1638389116187172555,-0.31124499440193176,-0.08140300214290619,9.95625114440918,-0.02851100079715252,0.01785299926996231,0.0039969999343156815,6.900000095367432,10.5,83.0999984741211
1638389116.2309716,1638389116224309824,-0.2992739975452423,-0.09816200286149979,10.038850784301758,-0.02797899954020977,0.018118999898433685,0.003464000066742301,6.900000095367432,10.5,83.0999984741211
1638389116.2351375,1638389116228396708,-0.3256100118160248,-0.0969650000333786,9.975404739379883,-0.02851100079715252,0.018118999898433685,0.0037299999967217445,6.900000095367432,10.5,83.0999984741211
1638389116.2550993,1638389116248303043,-0.3471580147743225,-0.08619099855422974,9.959842681884766,-0.02797899954020977,0.01785299926996231,0.0037299999967217445,6.900000095367432,10.5,83.0999984741211
1638389116.2744217,1638389116267732804,-0.33518698811531067,-0.09217599779367447,9.95625114440918,-0.027712000533938408,0.017319999635219574,0.003464000066742301,6.900000095367432,10.5,83.0999984741211
1638389116.2938178,1638389116287186163,-0.34476399421691895,-0.08738800138235092,9.947871208190918,-0.02797899954020977,0.017587000504136086,0.003197999903932214,6.300000190734863,9.899999618530273,83.69999694824219
1638389116.3424716,1638389116335344655,-0.3268069922924042,-0.08140300214290619,9.983783721923828,-0.028245000168681145,0.01785299926996231,0.002930999966338277,6.300000190734863,9.899999618530273,83.69999694824219
1638389116.3553004,1638389116348683730,-0.2992739975452423,-0.08738800138235092,10.013711929321289,-0.028245000168681145,0.017587000504136086,0.0037299999967217445,6.300000190734863,9.899999618530273,83.69999694824219
1638389116.3748326,1638389116368192773,-0.27892300486564636,-0.08499400317668915,9.988572120666504,-0.027712000533938408,0.018118999898433685,0.0037299999967217445,6.300000190734863,9.899999618530273,83.69999694824219
1638389116.3942285,1638389116387469182,-0.30286499857902527,-0.06943199783563614,9.994558334350586,-0.028245000168681145,0.01705400086939335,0.003197999903932214,5.699999809265137,9.899999618530273,81.9000015258789
1638389116.429045,1638389116422359597,-0.33518698811531067,-0.09097900241613388,9.978996276855469,-0.027712000533938408,0.016520999372005463,0.0037299999967217445,5.699999809265137,9.899999618530273,81.9000015258789
1638389116.4352427,1638389116428616763,-0.2932890057563782,-0.08619099855422974,9.961039543151855,-0.028245000168681145,0.018118999898433685,0.002930999966338277,5.699999809265137,9.899999618530273,81.9000015258789
1638389116.45536,1638389116448737135,-0.33638399839401245,-0.0730229988694191,9.965827941894531,-0.02851100079715252,0.01785299926996231,0.003197999903932214,5.699999809265137,9.899999618530273,81.9000015258789
1638389116.4747872,1638389116467846543,-0.2980769872665405,-0.09935899823904037,9.993361473083496,-0.027445999905467033,0.01785299926996231,0.003197999903932214,5.699999809265137,9.899999618530273,81.9000015258789
1638389116.4958062,1638389116489180927,-0.31004801392555237,-0.09457100182771683,9.962236404418945,-0.02877799980342388,0.018386000767350197,0.0037299999967217445,5.099999904632568,8.699999809265137,82.5
1638389116.5419397,1638389116535324730,-0.31962499022483826,-0.08020500093698502,9.977798461914062,-0.02851100079715252,0.017587000504136086,0.003197999903932214,5.099999904632568,8.699999809265137,82.5
1638389116.5553293,1638389116548589942,-0.3303990066051483,-0.08499400317668915,9.99216365814209,-0.02877799980342388,0.01785299926996231,0.003464000066742301,5.099999904632568,8.699999809265137,82.5
1638389116.5746424,1638389116567923025,-0.31962499022483826,-0.08379700034856796,9.998148918151855,-0.028245000168681145,0.018118999898433685,0.0026650000363588333,5.099999904632568,8.699999809265137,82.5
1638389116.5962238,1638389116589479573,-0.35194599628448486,-0.09097900241613388,9.978996276855469,-0.02797899954020977,0.015987999737262726,0.003464000066742301,6.599999904632568,9.0,79.79999542236328
1638389116.6295497,1638389116622278883,-0.3064570128917694,-0.07781100273132324,10.035259246826172,-0.028245000168681145,0.017587000504136086,0.003464000066742301,6.599999904632568,9.0,79.79999542236328
1638389116.6356313,1638389116628568293,-0.3052600026130676,-0.06344600021839142,9.984981536865234,-0.02797899954020977,0.01785299926996231,0.003464000066742301,6.599999904632568,9.0,79.79999542236328
1638389116.655264,1638389116648372427,-0.31962499022483826,-0.07422000169754028,10.000543594360352,-0.02797899954020977,0.016787000000476837,0.0037299999967217445,6.599999904632568,9.0,79.79999542236328
1638389116.6743784,1638389116667772185,-0.34356701374053955,-0.07900799810886383,9.965827941894531,-0.028245000168681145,0.016787000000476837,0.0023980000987648964,6.599999904632568,9.0,79.79999542236328
1638389116.6959383,1638389116689329358,-0.324413001537323,-0.06344600021839142,10.022090911865234,-0.028245000168681145,0.018118999898433685,0.004263000097125769,4.199999809265137,9.600000381469727,82.79999542236328
1638389116.7288525,1638389116722238162,-0.3471580147743225,-0.09337399899959564,10.010120391845703,-0.027445999905467033,0.018919000402092934,0.003464000066742301,4.199999809265137,9.600000381469727,82.79999542236328
1638389116.7351167,1638389116728522467,-0.32800400257110596,-0.09935899823904037,9.981389999389648,-0.027712000533938408,0.018651999533176422,0.003464000066742301,4.199999809265137,9.600000381469727,82.79999542236328
1638389116.7551765,1638389116748419425,-0.3160330057144165,-0.11970999836921692,9.984981536865234,-0.02797899954020977,0.018386000767350197,0.003197999903932214,4.199999809265137,9.600000381469727,82.79999542236328
1638389116.7745461,1638389116767928572,-0.2992739975452423,-0.09457100182771683,9.983783721923828,-0.02851100079715252,0.018386000767350197,0.0039969999343156815,4.199999809265137,9.600000381469727,82.79999542236328
1638389116.796026,1638389116789402298,-0.3148359954357147,-0.09337399899959564,9.978996276855469,-0.027445999905467033,0.018386000767350197,0.003464000066742301,6.300000190734863,8.09999942779541,82.5
1638389116.8446717,1638389116838048977,-0.32920199632644653,-0.11492100358009338,9.981389999389648,-0.028245000168681145,0.018118999898433685,0.004263000097125769,6.300000190734863,8.09999942779541,82.5
1638389116.855115,1638389116848495281,-0.3160330057144165,-0.07661399990320206,9.988572120666504,-0.02877799980342388,0.018118999898433685,0.003464000066742301,6.300000190734863,8.09999942779541,82.5
1638389116.8744822,1638389116867866650,-0.3088510036468506,-0.08140300214290619,9.995755195617676,-0.02797899954020977,0.018651999533176422,0.003197999903932214,6.300000190734863,8.09999942779541,82.5
1638389116.8960347,1638389116889316987,-0.3172309994697571,-0.0646430030465126,9.982586860656738,-0.028245000168681145,0.01785299926996231,0.003197999903932214,4.800000190734863,9.0,82.19999694824219
1638389116.9430296,1638389116935838183,-0.3339900076389313,-0.0897819995880127,9.953856468200684,-0.02797899954020977,0.01785299926996231,0.0037299999967217445,4.800000190734863,9.0,82.19999694824219
1638389116.9551747,1638389116948558115,-0.33638399839401245,-0.09576799720525742,10.007725715637207,-0.027445999905467033,0.018118999898433685,0.003197999903932214,4.800000190734863,9.0,82.19999694824219
1638389116.974559,1638389116967970739,-0.33638399839401245,-0.10414700210094452,9.968221664428711,-0.02851100079715252,0.018118999898433685,0.0037299999967217445,4.800000190734863,9.0,82.19999694824219
1638389116.9967089,1638389116989311687,-0.31962499022483826,-0.09816200286149979,9.999346733093262,-0.028245000168681145,0.01705400086939335,0.0026650000363588333,5.400000095367432,9.0,84.0
1638389117.0307639,1638389117024120670,-0.31004801392555237,-0.10654199868440628,9.973010063171387,-0.028245000168681145,0.017319999635219574,0.0039969999343156815,5.400000095367432,9.0,84.0
1638389117.0348325,1638389117028278603,-0.3148359954357147,-0.08858499675989151,9.987375259399414,-0.02851100079715252,0.018386000767350197,0.003197999903932214,5.400000095367432,9.0,84.0
1638389117.0546331,1638389117048077775,-0.33758100867271423,-0.09217599779367447,9.952659606933594,-0.028245000168681145,0.018118999898433685,0.003464000066742301,5.400000095367432,9.0,84.0
1638389117.076267,1638389117069506012,-0.33877798914909363,-0.09217599779367447,9.988572120666504,-0.027712000533938408,0.01785299926996231,0.003197999903932214,5.400000095367432,9.0,84.0
1638389117.0954702,1638389117088801682,-0.34356701374053955,-0.08020500093698502,10.006528854370117,-0.02797899954020977,0.01705400086939335,0.003464000066742301,6.0,9.0,82.19999694824219
1638389117.1446788,1638389117137699405,-0.3256100118160248,-0.10654199868440628,9.984981536865234,-0.02851100079715252,0.017319999635219574,0.003464000066742301,6.0,9.0,82.19999694824219
1638389117.1578383,1638389117150720931,-0.3172309994697571,-0.09576799720525742,9.959842681884766,-0.02851100079715252,0.01785299926996231,0.003464000066742301,6.0,9.0,82.19999694824219
1638389117.1766827,1638389117169957374,-0.33758100867271423,-0.07900799810886383,9.961039543151855,-0.027712000533938408,0.016787000000476837,0.0039969999343156815,6.0,9.0,82.19999694824219
1638389117.1960087,1638389117189384675,-0.3303990066051483,-0.0969650000333786,9.990966796875,-0.02797899954020977,0.018386000767350197,0.003464000066742301,7.800000190734863,10.200000762939453,83.4000015258789
1638389117.2311237,1638389117224050768,-0.28969699144363403,-0.11970999836921692,10.018500328063965,-0.02851100079715252,0.01785299926996231,0.003464000066742301,7.800000190734863,10.200000762939453,83.4000015258789
1638389117.2366745,1638389117230103842,-0.31363898515701294,-0.07781100273132324,9.98976993560791,-0.029044000431895256,0.017587000504136086,0.003197999903932214,7.800000190734863,10.200000762939453,83.4000015258789
1638389117.2568681,1638389117250019279,-0.31842800974845886,-0.08259999752044678,9.950265884399414,-0.02797899954020977,0.017319999635219574,0.003197999903932214,7.800000190734863,10.200000762939453,83.4000015258789
1638389117.2759328,1638389117269263067,-0.3148359954357147,-0.07062900066375732,9.978996276855469,-0.02877799980342388,0.01785299926996231,0.002930999966338277,7.800000190734863,10.200000762939453,83.4000015258789
1638389117.3020353,1638389117290862993,-0.31244200468063354,-0.10055600106716156,9.996952056884766,-0.028245000168681145,0.017587000504136086,0.0037299999967217445,6.300000190734863,8.699999809265137,81.9000015258789
1638389117.3449526,1638389117338224945,-0.3160330057144165,-0.06823399662971497,10.005331993103027,-0.028245000168681145,0.018386000767350197,0.003197999903932214,6.300000190734863,8.699999809265137,81.9000015258789
1638389117.3569276,1638389117349979849,-0.28969699144363403,-0.0897819995880127,9.941885948181152,-0.028245000168681145,0.018919000402092934,0.002930999966338277,6.300000190734863,8.699999809265137,81.9000015258789
1638389117.3757927,1638389117369247598,-0.3148359954357147,-0.09457100182771683,9.935900688171387,-0.02851100079715252,0.01785299926996231,0.0039969999343156815,6.300000190734863,8.699999809265137,81.9000015258789
1638389117.3975003,1638389117390884977,-0.33518698811531067,-0.06703700125217438,9.981389999389648,-0.02851100079715252,0.018118999898433685,0.0039969999343156815,6.300000190734863,8.09999942779541,81.30000305175781
1638389117.4320564,1638389117425409593,-0.2992739975452423,-0.07062900066375732,9.993361473083496,-0.027445999905467033,0.018118999898433685,0.0037299999967217445,6.300000190734863,8.09999942779541,81.30000305175781
1638389117.436496,1638389117429910487,-0.30286499857902527,-0.0646430030465126,10.000543594360352,-0.027712000533938408,0.017587000504136086,0.003197999903932214,6.300000190734863,8.09999942779541,81.30000305175781
1638389117.4568632,1638389117449962296,-0.3232159912586212,-0.0969650000333786,10.029273986816406,-0.02851100079715252,0.017319999635219574,0.003197999903932214,6.300000190734863,8.09999942779541,81.30000305175781
1638389117.4769042,1638389117470288932,-0.31124499440193176,-0.0897819995880127,9.988572120666504,-0.02877799980342388,0.018118999898433685,0.003464000066742301,6.300000190734863,8.09999942779541,81.30000305175781
1638389117.4981048,1638389117490963791,-0.33518698811531067,-0.08858499675989151,10.016105651855469,-0.02851100079715252,0.017587000504136086,0.003197999903932214,5.400000095367432,7.800000190734863,82.19999694824219
1638389117.544089,1638389117537371921,-0.3052600026130676,-0.09217599779367447,9.953856468200684,-0.02797899954020977,0.017587000504136086,0.003197999903932214,5.400000095367432,7.800000190734863,82.19999694824219
1638389117.5578487,1638389117550175398,-0.29568299651145935,-0.06823399662971497,9.964631080627441,-0.02851100079715252,0.018118999898433685,0.0037299999967217445,5.400000095367432,7.800000190734863,82.19999694824219
1638389117.575963,1638389117569286825,-0.3232159912586212,-0.08738800138235092,9.965827941894531,-0.028245000168681145,0.018118999898433685,0.003464000066742301,5.400000095367432,7.800000190734863,82.19999694824219
1638389117.5975242,1638389117590946967,-0.3076539933681488,-0.08619099855422974,9.937097549438477,-0.028245000168681145,0.017319999635219574,0.0037299999967217445,5.699999809265137,9.899999618530273,81.30000305175781
1638389117.6438472,1638389117637286860,-0.31842800974845886,-0.08379700034856796,9.981389999389648,-0.02797899954020977,0.018118999898433685,0.003197999903932214,5.699999809265137,9.899999618530273,81.30000305175781
1638389117.6565914,1638389117650019078,-0.3076539933681488,-0.06823399662971497,10.010120391845703,-0.02851100079715252,0.018651999533176422,0.002930999966338277,5.699999809265137,9.899999618530273,81.30000305175781
1638389117.678477,1638389117671912375,-0.34476399421691895,-0.09217599779367447,9.971813201904297,-0.02797899954020977,0.018118999898433685,0.004263000097125769,5.699999809265137,9.899999618530273,81.30000305175781
1638389117.6977816,1638389117691202314,-0.33638399839401245,-0.09576799720525742,10.011317253112793,-0.02797899954020977,0.018386000767350197,0.003197999903932214,4.800000190734863,11.40000057220459,84.5999984741211
1638389117.7444253,1638389117737878344,-0.31004801392555237,-0.11013299971818924,9.970616340637207,-0.028245000168681145,0.016787000000476837,0.003197999903932214,4.800000190734863,11.40000057220459,84.5999984741211
1638389117.7570992,1638389117750541543,-0.3543410003185272,-0.07900799810886383,9.984981536865234,-0.02877799980342388,0.017319999635219574,0.0037299999967217445,4.800000190734863,11.40000057220459,84.5999984741211
1638389117.7767484,1638389117769884718,-0.31004801392555237,-0.07182600349187851,10.011317253112793,-0.029044000431895256,0.01785299926996231,0.003464000066742301,4.800000190734863,11.40000057220459,84.5999984741211
1638389117.7987766,1638389117792086857,-0.3232159912586212,-0.06943199783563614,9.965827941894531,-0.028245000168681145,0.018386000767350197,0.003197999903932214,4.800000190734863,10.200000762939453,82.19999694824219
1638389117.8306842,1638389117824101306,-0.3064570128917694,-0.09337399899959564,9.976601600646973,-0.027445999905467033,0.018118999898433685,0.003197999903932214,4.800000190734863,10.200000762939453,82.19999694824219
1638389117.837152,1638389117830353311,-0.3327929973602295,-0.07541699707508087,9.953856468200684,-0.02717900089919567,0.017587000504136086,0.003197999903932214,4.800000190734863,10.200000762939453,82.19999694824219
1638389117.8566551,1638389117850138940,-0.2980769872665405,-0.07062900066375732,9.965827941894531,-0.02797899954020977,0.018386000767350197,0.0037299999967217445,4.800000190734863,10.200000762939453,82.19999694824219
1638389117.8790326,1638389117871941027,-0.31962499022483826,-0.08858499675989151,9.952659606933594,-0.028245000168681145,0.018118999898433685,0.002930999966338277,4.800000190734863,10.200000762939453,82.19999694824219
1638389117.8984697,1638389117891939444,-0.3268069922924042,-0.08020500093698502,9.949068069458008,-0.02851100079715252,0.01785299926996231,0.002930999966338277,6.300000190734863,8.699999809265137,83.0999984741211
1638389117.9449067,1638389117938231049,-0.2920919954776764,-0.10534399747848511,9.959842681884766,-0.02877799980342388,0.017319999635219574,0.0039969999343156815,6.300000190734863,8.699999809265137,83.0999984741211
1638389117.9574664,1638389117950891487,-0.31962499022483826,-0.10534399747848511,9.996952056884766,-0.02797899954020977,0.01785299926996231,0.004263000097125769,6.300000190734863,8.699999809265137,83.0999984741211
1638389117.9767387,1638389117970215337,-0.3172309994697571,-0.09217599779367447,9.986178398132324,-0.027712000533938408,0.018386000767350197,0.0037299999967217445,6.300000190734863,8.699999809265137,83.0999984741211
1638389117.998938,1638389117992418727,-0.3148359954357147,-0.08738800138235092,9.996952056884766,-0.02851100079715252,0.01785299926996231,0.003197999903932214,6.599999904632568,9.0,82.19999694824219
1638389118.0290625,1638389118022530780,-0.3303990066051483,-0.08499400317668915,10.02568244934082,-0.028245000168681145,0.018118999898433685,0.0037299999967217445,6.599999904632568,9.0,82.19999694824219
1638389118.0375767,1638389118031034529,-0.31004801392555237,-0.09816200286149979,9.968221664428711,-0.02851100079715252,0.01785299926996231,0.0037299999967217445,6.599999904632568,9.0,82.19999694824219
1638389118.057815,1638389118050987771,-0.3076539933681488,-0.09457100182771683,9.980193138122559,-0.02851100079715252,0.018118999898433685,0.003197999903932214,6.599999904632568,9.0,82.19999694824219
1638389118.0768795,1638389118070357032,-0.31363898515701294,-0.09097900241613388,9.959842681884766,-0.02877799980342388,0.01705400086939335,0.002930999966338277,6.599999904632568,9.0,82.19999694824219
1638389118.0992928,1638389118092418983,-0.3339900076389313,-0.07422000169754028,10.001740455627441,-0.02797899954020977,0.017319999635219574,0.003197999903932214,6.900000095367432,8.09999942779541,80.70000457763672
1638389118.1290915,1638389118122634013,-0.3160330057144165,-0.08379700034856796,9.978996276855469,-0.02877799980342388,0.01785299926996231,0.0039969999343156815,6.900000095367432,8.09999942779541,80.70000457763672
1638389118.1416996,1638389118134863762,-0.3004710078239441,-0.1209070011973381,9.990966796875,-0.02797899954020977,0.018118999898433685,0.003464000066742301,6.900000095367432,8.09999942779541,80.70000457763672
1638389118.1586692,1638389118151982421,-0.31962499022483826,-0.06703700125217438,9.99216365814209,-0.027445999905467033,0.018386000767350197,0.0037299999967217445,6.900000095367432,8.09999942779541,80.70000457763672
1638389118.1791532,1638389118172576683,-0.31842800974845886,-0.0969650000333786,9.959842681884766,-0.02851100079715252,0.018386000767350197,0.003464000066742301,6.900000095367432,8.09999942779541,80.70000457763672
1638389118.1990557,1638389118192533832,-0.32920199632644653,-0.09576799720525742,9.974207878112793,-0.02851100079715252,0.018118999898433685,0.0039969999343156815,6.900000095367432,9.899999618530273,83.69999694824219
1638389118.230369,1638389118223742167,-0.34476399421691895,-0.11133000254631042,10.004135131835938,-0.028245000168681145,0.01785299926996231,0.003464000066742301,6.900000095367432,9.899999618530273,83.69999694824219
1638389118.2377625,1638389118231240474,-0.3160330057144165,-0.11013299971818924,9.983783721923828,-0.028245000168681145,0.018118999898433685,0.0039969999343156815,6.900000095367432,9.899999618530273,83.69999694824219
1638389118.2573597,1638389118250891907,-0.31004801392555237,-0.09457100182771683,9.95744800567627,-0.02797899954020977,0.01785299926996231,0.0039969999343156815,6.900000095367432,9.899999618530273,83.69999694824219
1638389118.2794075,1638389118272844937,-0.3339900076389313,-0.09217599779367447,10.02328872680664,-0.02851100079715252,0.01785299926996231,0.002131999935954809,6.900000095367432,9.899999618530273,83.69999694824219
1638389118.299792,1638389118292934551,-0.3160330057144165,-0.08858499675989151,9.984981536865234,-0.028245000168681145,0.018118999898433685,0.0037299999967217445,6.300000190734863,9.300000190734863,83.0999984741211
1638389118.3297904,1638389118323169427,-0.3327929973602295,-0.08259999752044678,10.022090911865234,-0.02877799980342388,0.01918499916791916,0.002930999966338277,6.300000190734863,9.300000190734863,83.0999984741211
1638389118.343053,1638389118336514216,-0.3076539933681488,-0.09935899823904037,9.986178398132324,-0.028245000168681145,0.01785299926996231,0.003464000066742301,6.300000190734863,9.300000190734863,83.0999984741211
1638389118.3571455,1638389118350661191,-0.33518698811531067,-0.06943199783563614,9.981389999389648,-0.02797899954020977,0.018118999898433685,0.002930999966338277,6.300000190734863,9.300000190734863,83.0999984741211
1638389118.3802462,1638389118373190597,-0.32082200050354004,-0.08020500093698502,9.981389999389648,-0.02851100079715252,0.018118999898433685,0.0039969999343156815,6.300000190734863,9.300000190734863,83.0999984741211
1638389118.399754,1638389118393199888,-0.3339900076389313,-0.10654199868440628,9.982586860656738,-0.028245000168681145,0.018651999533176422,0.003464000066742301,5.400000095367432,8.40000057220459,83.4000015258789
1638389118.4433599,1638389118436853469,-0.30406200885772705,-0.08858499675989151,9.978996276855469,-0.028245000168681145,0.01705400086939335,0.003464000066742301,5.400000095367432,8.40000057220459,83.4000015258789
1638389118.458396,1638389118451773356,-0.3411720097064972,-0.08259999752044678,9.940689086914062,-0.027712000533938408,0.017319999635219574,0.0037299999967217445,5.400000095367432,8.40000057220459,83.4000015258789
1638389118.4790716,1638389118471214813,-0.3004710078239441,-0.09816200286149979,10.006528854370117,-0.028245000168681145,0.018386000767350197,0.0023980000987648964,5.400000095367432,8.40000057220459,83.4000015258789
1638389118.49978,1638389118493215558,-0.3172309994697571,-0.09935899823904037,9.986178398132324,-0.02877799980342388,0.017587000504136086,0.0037299999967217445,6.0,8.40000057220459,81.0
1638389118.5935905,1638389118536105968,-0.32082200050354004,-0.07900799810886383,9.999346733093262,-0.02851100079715252,0.017319999635219574,0.003197999903932214,6.0,8.40000057220459,81.0
1638389118.5954895,1638389118550697687,-0.3064570128917694,-0.07182600349187851,9.98976993560791,-0.028245000168681145,0.01785299926996231,0.003197999903932214,6.0,8.40000057220459,81.0
1638389118.5955055,1638389118572583001,-0.3315959870815277,-0.06943199783563614,9.973010063171387,-0.02797899954020977,0.018118999898433685,0.002930999966338277,6.0,8.40000057220459,81.0
1638389118.5996902,1638389118593080584,-0.3160330057144165,-0.08738800138235092,9.981389999389648,-0.02877799980342388,0.01705400086939335,0.003464000066742301,6.0,10.800000190734863,81.60000610351562
1638389118.630305,1638389118623401982,-0.3172309994697571,-0.0646430030465126,10.008923530578613,-0.02797899954020977,0.01785299926996231,0.003197999903932214,6.0,10.800000190734863,81.60000610351562
1638389118.6395671,1638389118632910964,-0.3076539933681488,-0.10294999927282333,9.976601600646973,-0.02851100079715252,0.018386000767350197,0.002930999966338277,6.0,10.800000190734863,81.60000610351562
1638389118.658426,1638389118651939504,-0.31244200468063354,-0.08499400317668915,9.977798461914062,-0.02851100079715252,0.017319999635219574,0.002930999966338277,6.0,10.800000190734863,81.60000610351562
1638389118.680494,1638389118673938218,-0.31004801392555237,-0.09576799720525742,10.012514114379883,-0.027712000533938408,0.017319999635219574,0.0026650000363588333,6.0,10.800000190734863,81.60000610351562
1638389118.7007747,1638389118693876770,-0.3327929973602295,-0.07900799810886383,9.974207878112793,-0.02797899954020977,0.01705400086939335,0.002930999966338277,5.699999809265137,9.300000190734863,83.69999694824219
1638389118.7319121,1638389118725372382,-0.3220190107822418,-0.06703700125217438,10.032865524291992,-0.028245000168681145,0.017587000504136086,0.003464000066742301,5.699999809265137,9.300000190734863,83.69999694824219
1638389118.742239,1638389118735568380,-0.34356701374053955,-0.17597299814224243,9.903578758239746,-0.026645999401807785,0.018386000767350197,0.0037299999967217445,5.699999809265137,9.300000190734863,83.69999694824219
1638389118.761798,1638389118753479901,-0.2825149893760681,-0.5949569940567017,9.732394218444824,-0.02318199910223484,0.01705400086939335,0.013856000266969204,5.699999809265137,9.300000190734863,83.69999694824219
1638389118.7794569,1638389118773002307,-0.15801699459552765,0.3543410003185272,10.298620223999023,-0.014921999536454678,0.01465499959886074,-0.011723999865353107,5.699999809265137,9.300000190734863,83.69999694824219
1638389118.819981,1638389118813414585,-0.47524699568748474,-0.4525020122528076,9.819782257080078,-0.018651999533176422,0.018118999898433685,0.01039199996739626,6.0,9.0,82.79999542236328
1638389118.8426645,1638389118836160791,-0.6153079867362976,0.04429300129413605,10.096311569213867,-0.017587000504136086,0.019984999671578407,0.00026599998818710446,6.0,9.0,82.79999542236328
1638389118.8599029,1638389118853427490,-0.10773900151252747,0.3256100118160248,10.344109535217285,-0.006128999870270491,0.01918499916791916,-0.009592999704182148,6.0,9.0,82.79999542236328
1638389118.8790188,1638389118872505671,-0.4213779866695404,-0.2178719937801361,9.95864486694336,-0.017319999635219574,0.022648999467492104,0.001598999951966107,6.0,9.0,82.79999542236328
1638389118.898813,1638389118892110848,-0.2861059904098511,0.06703700125217438,10.035259246826172,-0.01785299926996231,0.01785299926996231,0.003464000066742301,6.900000095367432,9.300000190734863,81.9000015258789
1638389118.942406,1638389118935725725,-0.31962499022483826,-0.04788399860262871,10.06039810180664,-0.02238300070166588,0.017319999635219574,0.002131999935954809,6.900000095367432,9.300000190734863,81.9000015258789
1638389118.959354,1638389118952781043,-0.2813180088996887,-0.05147499963641167,10.019697189331055,-0.0247809998691082,0.0162540003657341,0.0039969999343156815,6.900000095367432,9.300000190734863,81.9000015258789
1638389118.9798572,1638389118973440782,-0.2837119996547699,-0.07422000169754028,9.929914474487305,-0.026112999767065048,0.01785299926996231,0.002930999966338277,6.900000095367432,9.300000190734863,81.9000015258789
1638389118.9988582,1638389118992416138,-0.3076539933681488,-0.05147499963641167,9.986178398132324,-0.027445999905467033,0.018118999898433685,0.0039969999343156815,5.699999809265137,7.5,83.69999694824219
1638389119.0289452,1638389119022146561,-0.23702499270439148,-0.19752100110054016,9.756336212158203,-0.039170000702142715,0.016787000000476837,0.003464000066742301,5.699999809265137,7.5,83.69999694824219
1638389119.039692,1638389119033118069,-0.2932890057563782,-0.14125700294971466,10.036456108093262,-0.035172998905181885,0.01705400086939335,0.0026650000363588333,5.699999809265137,7.5,83.69999694824219
1638389119.0591424,1638389119052592747,-0.29568299651145935,0.0143649997189641,10.007725715637207,-0.03410699963569641,0.016787000000476837,0.0037299999967217445,5.699999809265137,7.5,83.69999694824219
1638389119.0786712,1638389119072053518,-0.26455798745155334,-0.08020500093698502,10.008923530578613,-0.04023599997162819,0.015188000164926052,0.0018649999983608723,5.699999809265137,7.5,83.69999694824219
1638389119.1005535,1638389119093983720,-0.2777259945869446,-0.16639600694179535,9.891608238220215,-0.042899999767541885,0.012524000369012356,-0.006661999970674515,5.699999809265137,9.300000190734863,81.30000305175781
1638389119.142144,1638389119135737394,-0.4381369948387146,0.1927330046892166,9.962236404418945,-0.04822999984025955,0.01705400086939335,-0.00506300013512373,5.699999809265137,9.300000190734863,81.30000305175781
1638389119.1592014,1638389119152664352,-0.33758100867271423,-0.6703739762306213,9.86646842956543,-0.047697000205516815,0.015455000102519989,0.024514999240636826,5.699999809265137,9.300000190734863,81.30000305175781
1638389119.1785808,1638389119172061000,-0.24540500342845917,0.5698180198669434,10.169334411621094,-0.01918499916791916,0.012790000066161156,-0.009859000332653522,5.699999809265137,9.300000190734863,81.30000305175781
1638389119.200715,1638389119194118926,-0.30406200885772705,-0.3639169931411743,9.799431800842285,-0.03410699963569641,0.01705400086939335,0.006128999870270491,5.099999904632568,9.300000190734863,82.5
1638389119.2431972,1638389119235752793,-0.3639169931411743,-0.11851300299167633,9.911958694458008,-0.028245000168681145,0.01785299926996231,0.008527000434696674,5.099999904632568,9.300000190734863,82.5
1638389119.2592552,1638389119252849824,-0.3315959870815277,-0.03711000084877014,9.980193138122559,-0.02797899954020977,0.017319999635219574,0.0007989999721758068,5.099999904632568,9.300000190734863,82.5
1638389119.27854,1638389119272181620,-0.3220190107822418,-0.05865800008177757,10.05920124053955,-0.027712000533938408,0.018386000767350197,0.004530000034719706,5.099999904632568,9.300000190734863,82.5
1638389119.3008358,1638389119294118020,-0.3256100118160248,-0.10175299644470215,9.947871208190918,-0.02851100079715252,0.018386000767350197,0.0037299999967217445,6.599999904632568,9.0,82.79999542236328
1638389119.3305526,1638389119324185617,-0.3016679883003235,-0.0646430030465126,10.037653923034668,-0.02851100079715252,0.01785299926996231,0.002930999966338277,6.599999904632568,9.0,82.79999542236328
1638389119.3429418,1638389119336610071,-0.3315959870815277,-0.06224900111556053,10.05920124053955,-0.026645999401807785,0.018386000767350197,0.004796000197529793,6.599999904632568,9.0,82.79999542236328
1638389119.3586032,1638389119352306662,-0.31124499440193176,-0.12808899581432343,9.950265884399414,-0.02851100079715252,0.018651999533176422,0.003197999903932214,6.599999904632568,9.0,82.79999542236328
1638389119.3804307,1638389119373800870,-0.2777259945869446,-0.06224900111556053,9.950265884399414,-0.027712000533938408,0.01785299926996231,0.0037299999967217445,6.599999904632568,9.0,82.79999542236328
1638389119.400124,1638389119393706646,-0.2992739975452423,-0.08379700034856796,9.995755195617676,-0.02717900089919567,0.01785299926996231,0.004530000034719706,5.099999904632568,9.300000190734863,81.30000305175781
1638389119.4443576,1638389119437509750,-0.3160330057144165,-0.0730229988694191,9.983783721923828,-0.028245000168681145,0.018386000767350197,0.002930999966338277,5.099999904632568,9.300000190734863,81.30000305175781
1638389119.458832,1638389119452356284,-0.2980769872665405,-0.10414700210094452,10.008923530578613,-0.02877799980342388,0.018386000767350197,0.002930999966338277,5.099999904632568,9.300000190734863,81.30000305175781
1638389119.4804103,1638389119473813873,-0.29688000679016113,-0.07661399990320206,9.959842681884766,-0.02877799980342388,0.017587000504136086,0.003197999903932214,5.099999904632568,9.300000190734863,81.30000305175781
1638389119.4999971,1638389119493664902,-0.3232159912586212,-0.07422000169754028,10.002937316894531,-0.027712000533938408,0.016520999372005463,0.0039969999343156815,6.599999904632568,9.600000381469727,82.19999694824219
1638389119.5301564,1638389119523684055,-0.3064570128917694,-0.11611799895763397,9.988572120666504,-0.028245000168681145,0.017319999635219574,0.003464000066742301,6.599999904632568,9.600000381469727,82.19999694824219
1638389119.539372,1638389119532677810,-0.4393340051174164,-0.17477600276470184,10.035259246826172,-0.0325080007314682,0.018919000402092934,0.0026650000363588333,6.599999904632568,9.600000381469727,82.19999694824219
1638389119.6369557,1638389119554314692,-0.23702499270439148,0.10175299644470215,9.970616340637207,-0.03010999970138073,0.020517999306321144,-0.006661999970674515,6.599999904632568,9.600000381469727,82.19999694824219
1638389119.6445477,1638389119573677690,-0.44292598962783813,-0.4070129990577698,9.910760879516602,-0.04663100093603134,0.015188000164926052,0.004530000034719706,6.599999904632568,9.600000381469727,82.19999694824219
1638389119.6445596,1638389119593610136,-0.2358279973268509,0.0646430030465126,10.056808471679688,-0.039170000702142715,0.016787000000476837,-0.002930999966338277,5.400000095367432,9.0,82.79999542236328
1638389119.64677,1638389119638816075,-0.3495520055294037,0.30286499857902527,10.354884147644043,-0.04156799986958504,0.019984999671578407,0.011990999802947044,5.400000095367432,9.0,82.79999542236328
1638389119.6610281,1638389119654700243,-0.38426798582077026,-0.18435299396514893,9.860483169555664,-0.0580889992415905,0.017587000504136086,0.009592999704182148,5.400000095367432,9.0,82.79999542236328
1638389119.6803517,1638389119674045270,-0.9361289739608765,-0.4525020122528076,9.915549278259277,-0.053025998175144196,0.027712000533938408,0.01012600027024746,5.400000095367432,9.0,82.79999542236328
1638389119.7003522,1638389119693860669,-0.5147510170936584,0.004788000136613846,9.879636764526367,-0.035440001636743546,0.01785299926996231,0.012524000369012356,6.599999904632568,9.600000381469727,83.4000015258789
1638389119.7438636,1638389119737578033,0.20949199795722961,0.03830699995160103,9.913155555725098,-0.03437399864196777,0.009325999766588211,-0.006928000133484602,6.599999904632568,9.600000381469727,83.4000015258789
1638389119.761123,1638389119754860348,-0.37708500027656555,-0.2753320038318634,9.947871208190918,-0.03810400143265724,0.018118999898433685,0.007993999868631363,6.599999904632568,9.600000381469727,83.4000015258789
1638389119.7810073,1638389119774486973,-0.3878589868545532,-0.10294999927282333,9.926323890686035,-0.03170900046825409,0.018651999533176422,0.001598999951966107,6.599999904632568,9.600000381469727,83.4000015258789
1638389119.8067183,1638389119793918157,-0.30406200885772705,-0.11970999836921692,9.952659606933594,-0.03037700057029724,0.017587000504136086,0.0039969999343156815,5.400000095367432,8.40000057220459,81.60000610351562
1638389119.844002,1638389119837723448,-0.3339900076389313,-0.045490000396966934,10.010120391845703,-0.012524000369012356,0.0162540003657341,0.0039969999343156815,5.400000095367432,8.40000057220459,81.60000610351562
1638389119.861996,1638389119855638917,-0.33518698811531067,-0.11252699792385101,9.981389999389648,-0.021316999569535255,0.018386000767350197,0.00506300013512373,5.400000095367432,8.40000057220459,81.60000610351562
1638389119.880862,1638389119874565245,-0.19752100110054016,-0.10055600106716156,9.970616340637207,-0.019984999671578407,0.016787000000476837,0.003197999903932214,5.400000095367432,8.40000057220459,81.60000610351562
1638389119.9007256,1638389119894489773,-0.0897819995880127,0.04908100143074989,10.007725715637207,-0.020517999306321144,0.016787000000476837,0.00506300013512373,6.0,10.200000762939453,81.60000610351562
1638389119.9445596,1638389119938238338,-0.40940698981285095,-0.2861059904098511,9.856891632080078,-0.015455000102519989,0.014123000204563141,-0.01012600027024746,6.0,10.200000762939453,81.60000610351562
1638389119.9618156,1638389119955360060,-0.49679499864578247,0.11611799895763397,10.06039810180664,-0.0023980000987648964,0.01918499916791916,-0.038371000438928604,6.0,10.200000762939453,81.60000610351562
1638389119.9820247,1638389119975293808,-0.6572059988975525,-0.31962499022483826,9.978996276855469,-0.01119100023061037,0.02318199910223484,-0.016787000000476837,6.0,10.200000762939453,81.60000610351562
1638389120.0011332,1638389119994883189,-0.23702499270439148,-0.14844000339508057,9.904775619506836,-0.018919000402092934,0.013322999700903893,-0.00506300013512373,6.0,7.199999809265137,82.19999694824219
1638389120.0445561,1638389120038286061,-0.2669529914855957,-0.17716999351978302,10.020894050598145,-0.030910000205039978,0.01705400086939335,0.007993999868631363,6.0,7.199999809265137,82.19999694824219
1638389120.0614727,1638389120055243064,-0.41659000515937805,-0.12689200043678284,9.964631080627441,-0.027445999905467033,0.019718000665307045,0.0023980000987648964,6.0,7.199999809265137,82.19999694824219
1638389120.0815427,1638389120075231546,-0.32082200050354004,-0.057461000978946686,9.993361473083496,-0.02877799980342388,0.017587000504136086,0.0037299999967217445,6.0,7.199999809265137,82.19999694824219
1638389120.100841,1638389120094501239,-0.26934701204299927,-0.14724299311637878,9.946674346923828,-0.027712000533938408,0.016520999372005463,0.003464000066742301,6.300000190734863,10.5,82.5
1638389120.130681,1638389120124505267,-0.24540500342845917,-0.027533000335097313,10.061595916748047,-0.026913000270724297,0.01785299926996231,0.0026650000363588333,6.300000190734863,10.5,82.5
1638389120.1420724,1638389120135816186,-0.3711000084877014,-0.1460459977388382,9.95744800567627,-0.02877799980342388,0.017319999635219574,0.0037299999967217445,6.300000190734863,10.5,82.5
1638389120.161509,1638389120155030195,-0.31004801392555237,-0.10654199868440628,9.959842681884766,-0.027712000533938408,0.01785299926996231,0.002930999966338277,6.300000190734863,10.5,82.5
1638389120.180968,1638389120174750726,-0.2681500017642975,-0.08020500093698502,9.937097549438477,-0.02851100079715252,0.01785299926996231,0.0037299999967217445,6.300000190734863,10.5,82.5
1638389120.2025356,1638389120196309356,-0.3268069922924042,-0.10534399747848511,9.951462745666504,-0.028245000168681145,0.017587000504136086,0.004796000197529793,5.400000095367432,9.600000381469727,81.60000610351562
1638389120.285543,1638389120237371354,-0.31962499022483826,-0.10414700210094452,9.984981536865234,-0.02851100079715252,0.018651999533176422,0.0037299999967217445,5.400000095367432,9.600000381469727,81.60000610351562
1638389120.2880871,1638389120254473271,-0.32920199632644653,-0.08140300214290619,9.9694185256958,-0.02797899954020977,0.01785299926996231,0.002930999966338277,5.400000095367432,9.600000381469727,81.60000610351562
1638389120.288146,1638389120276732928,-0.31962499022483826,-0.09576799720525742,10.008923530578613,-0.027712000533938408,0.01918499916791916,0.002930999966338277,5.400000095367432,9.600000381469727,81.60000610351562
1638389120.302527,1638389120296226243,-0.3579320013523102,-0.07062900066375732,9.998148918151855,-0.028245000168681145,0.018118999898433685,0.002930999966338277,6.599999904632568,9.600000381469727,82.19999694824219
1638389120.3437579,1638389120337570829,-0.3315959870815277,-0.08619099855422974,9.986178398132324,-0.02877799980342388,0.018118999898433685,0.003464000066742301,6.599999904632568,9.600000381469727,82.19999694824219
1638389120.3609104,1638389120354686341,-0.3303990066051483,-0.10414700210094452,10.019697189331055,-0.027445999905467033,0.018651999533176422,0.0037299999967217445,6.599999904632568,9.600000381469727,82.19999694824219
1638389120.3830326,1638389120376595849,-0.30286499857902527,-0.06823399662971497,9.983783721923828,-0.02797899954020977,0.018919000402092934,0.0039969999343156815,6.599999904632568,9.600000381469727,82.19999694824219
1638389120.4028325,1638389120396414206,-0.324413001537323,-0.08379700034856796,9.996952056884766,-0.028245000168681145,0.017587000504136086,0.004530000034719706,5.400000095367432,9.600000381469727,83.4000015258789
1638389120.4442441,1638389120437519960,-0.32920199632644653,-0.07062900066375732,9.949068069458008,-0.026913000270724297,0.01705400086939335,0.003464000066742301,5.400000095367432,9.600000381469727,83.4000015258789
1638389120.4613678,1638389120454746371,-0.36750900745391846,-0.25617900490760803,9.8329496383667,-0.0247809998691082,0.016787000000476837,0.008527000434696674,5.400000095367432,9.600000381469727,83.4000015258789
1638389120.484194,1638389120477955524,-0.2525869905948639,-0.1388629972934723,9.963433265686035,-0.01785299926996231,0.018118999898433685,-0.0039969999343156815,5.400000095367432,9.600000381469727,83.4000015258789
1638389120.5023384,1638389120496074654,-0.3483549952507019,-0.0730229988694191,9.977798461914062,-0.012257000431418419,0.02105100080370903,-0.007726999931037426,6.0,9.0,82.19999694824219
1638389120.5447679,1638389120538333627,-0.26934701204299927,-0.07422000169754028,9.888016700744629,-0.012257000431418419,0.018651999533176422,-0.009859000332653522,6.0,9.0,82.19999694824219
1638389120.5627513,1638389120556518234,-0.23822200298309326,-0.3950420022010803,10.199261665344238,-0.007726999931037426,0.021316999569535255,-0.0039969999343156815,6.0,9.0,82.19999694824219
1638389120.58258,1638389120576407901,0.6440380215644836,0.11133000254631042,9.849710464477539,-0.018118999898433685,0.02318199910223484,-0.013322999700903893,6.0,9.0,82.19999694824219
1638389120.6040199,1638389120597755567,-0.5003859996795654,0.13168099522590637,10.33812427520752,-0.02877799980342388,0.018118999898433685,0.01039199996739626,5.400000095367432,10.200000762939453,82.19999694824219
1638389120.6301932,1638389120623443212,-0.4860210120677948,-0.06344600021839142,10.04842758178711,-0.03783800080418587,0.018919000402092934,0.0018649999983608723,5.400000095367432,10.200000762939453,82.19999694824219
1638389120.6429136,1638389120636767252,-0.2657549977302551,0.008379999548196793,10.031667709350586,-0.03730500116944313,0.01438899990171194,0.00133200001437217,5.400000095367432,10.200000762939453,82.19999694824219
1638389120.6629965,1638389120656529664,-0.4129979908466339,-0.17238199710845947,10.044836044311523,-0.03810400143265724,0.014921999536454678,0.004530000034719706,5.400000095367432,10.200000762939453,82.19999694824219
1638389120.6828449,1638389120676299577,-0.3651140034198761,0.0897819995880127,10.02568244934082,-0.042100999504327774,0.01465499959886074,-0.004796000197529793,5.400000095367432,10.200000762939453,82.19999694824219
1638389120.7019362,1638389120695542391,-0.6212930083274841,0.08379700034856796,10.201655387878418,-0.04822999984025955,0.018386000767350197,-0.0037299999967217445,5.699999809265137,8.699999809265137,84.30000305175781
1638389120.7441597,1638389120737394073,-0.3076539933681488,0.43454599380493164,10.154969215393066,-0.025047000497579575,0.011723999865353107,-0.0005329999839887023,5.699999809265137,8.699999809265137,84.30000305175781
1638389120.7626457,1638389120756359352,-0.40940698981285095,-0.2430109977722168,9.916747093200684,-0.029044000431895256,0.01785299926996231,0.0055959997698664665,5.699999809265137,8.699999809265137,84.30000305175781
1638389120.7829914,1638389120776296630,-0.2657549977302551,0.017955999821424484,10.02328872680664,-0.029577000066637993,0.017587000504136086,0.00026599998818710446,5.699999809265137,8.699999809265137,84.30000305175781
1638389120.8019588,1638389120795648677,-0.31842800974845886,-0.1699880063533783,9.947871208190918,-0.02797899954020977,0.01705400086939335,0.007460999768227339,6.300000190734863,11.100000381469727,81.9000015258789
1638389120.843634,1638389120837419567,-0.31244200468063354,-0.10414700210094452,10.022090911865234,-0.02877799980342388,0.01705400086939335,0.00506300013512373,6.300000190734863,11.100000381469727,81.9000015258789
1638389120.862729,1638389120856591071,-0.33638399839401245,-0.09097900241613388,9.93350601196289,-0.027445999905467033,0.018118999898433685,0.003197999903932214,6.300000190734863,11.100000381469727,81.9000015258789
1638389120.882767,1638389120876492563,-0.2932890057563782,-0.08140300214290619,9.967024803161621,-0.029044000431895256,0.018118999898433685,0.002131999935954809,6.300000190734863,11.100000381469727,81.9000015258789
1638389120.9020863,1638389120895865862,-0.3160330057144165,-0.09576799720525742,9.973010063171387,-0.027712000533938408,0.017587000504136086,0.0039969999343156815,5.400000095367432,8.40000057220459,81.60000610351562
1638389120.9437609,1638389120937363854,-0.35194599628448486,-0.07900799810886383,9.95505428314209,-0.02797899954020977,0.018118999898433685,0.0039969999343156815,5.400000095367432,8.40000057220459,81.60000610351562
1638389120.9629593,1638389120956461754,-0.32800400257110596,-0.08858499675989151,9.984981536865234,-0.027712000533938408,0.017587000504136086,0.0037299999967217445,5.400000095367432,8.40000057220459,81.60000610351562
1638389120.9835248,1638389120976520557,-0.3256100118160248,-0.10773900151252747,9.978996276855469,-0.02877799980342388,0.017587000504136086,0.002930999966338277,5.400000095367432,8.40000057220459,81.60000610351562
1638389121.0020707,1638389120995708312,-0.3232159912586212,-0.10414700210094452,9.996952056884766,-0.027712000533938408,0.01785299926996231,0.003197999903932214,5.699999809265137,9.300000190734863,81.30000305175781
1638389121.0300038,1638389121023425004,-0.2908940017223358,-0.08499400317668915,10.005331993103027,-0.02797899954020977,0.017319999635219574,0.0039969999343156815,5.699999809265137,9.300000190734863,81.30000305175781
1638389121.0428357,1638389121036568440,-0.3256100118160248,-0.0730229988694191,9.968221664428711,-0.028245000168681145,0.01785299926996231,0.002131999935954809,5.699999809265137,9.300000190734863,81.30000305175781
1638389121.0620482,1638389121055905317,-0.3411720097064972,-0.07182600349187851,10.008923530578613,-0.02797899954020977,0.018118999898433685,0.003197999903932214,5.699999809265137,9.300000190734863,81.30000305175781
1638389121.0820758,1638389121075824663,-0.33638399839401245,-0.08738800138235092,10.017303466796875,-0.02877799980342388,0.018118999898433685,0.003464000066742301,5.699999809265137,9.300000190734863,81.30000305175781
1638389121.1040015,1638389121097649720,-0.30406200885772705,-0.09576799720525742,9.971813201904297,-0.029044000431895256,0.017587000504136086,0.0037299999967217445,6.0,10.200000762939453,81.60000610351562
1638389121.129337,1638389121123112685,-0.3339900076389313,-0.0969650000333786,9.993361473083496,-0.02717900089919567,0.016787000000476837,0.0037299999967217445,6.0,10.200000762939453,81.60000610351562
1638389121.1430902,1638389121136612833,-0.3315959870815277,-0.0969650000333786,10.006528854370117,-0.02797899954020977,0.017587000504136086,0.0039969999343156815,6.0,10.200000762939453,81.60000610351562
1638389121.162598,1638389121155976015,-0.35314300656318665,-0.10175299644470215,9.971813201904297,-0.02851100079715252,0.01785299926996231,0.004263000097125769,6.0,10.200000762939453,81.60000610351562
1638389121.1846247,1638389121177823679,-0.3327929973602295,-0.10534399747848511,9.964631080627441,-0.02851100079715252,0.01705400086939335,0.003464000066742301,6.0,10.200000762939453,81.60000610351562
1638389121.2038586,1638389121197529509,-0.3256100118160248,-0.08858499675989151,9.967024803161621,-0.02851100079715252,0.01785299926996231,0.002930999966338277,6.599999904632568,10.200000762939453,81.60000610351562
1638389121.2428632,1638389121236618368,-0.33518698811531067,-0.09337399899959564,9.980193138122559,-0.02797899954020977,0.018651999533176422,0.004263000097125769,6.599999904632568,10.200000762939453,81.60000610351562
1638389121.2641442,1638389121257727552,-0.31124499440193176,-0.08619099855422974,10.001740455627441,-0.027445999905467033,0.01918499916791916,0.003464000066742301,6.599999904632568,10.200000762939453,81.60000610351562
1638389121.283518,1638389121277069795,-0.3172309994697571,-0.07182600349187851,9.938294410705566,-0.02797899954020977,0.018386000767350197,0.002930999966338277,6.599999904632568,10.200000762939453,81.60000610351562
1638389121.3033705,1638389121297047690,-0.28850001096725464,-0.08379700034856796,10.013711929321289,-0.02851100079715252,0.01785299926996231,0.0026650000363588333,5.699999809265137,8.09999942779541,83.69999694824219
1638389121.343065,1638389121336831376,-0.35194599628448486,-0.08858499675989151,9.970616340637207,-0.02851100079715252,0.018118999898433685,0.003464000066742301,5.699999809265137,8.09999942779541,83.69999694824219
1638389121.3649914,1638389121358597102,-0.3471580147743225,-0.09217599779367447,9.988572120666504,-0.028245000168681145,0.01785299926996231,0.004530000034719706,5.699999809265137,8.09999942779541,83.69999694824219
1638389121.3854096,1638389121379087928,-0.31363898515701294,-0.09457100182771683,9.995755195617676,-0.02797899954020977,0.018386000767350197,0.0039969999343156815,5.699999809265137,8.09999942779541,83.69999694824219
1638389121.4047124,1638389121398369277,-0.3064570128917694,-0.07541699707508087,9.981389999389648,-0.028245000168681145,0.01785299926996231,0.0039969999343156815,4.800000190734863,7.800000190734863,82.79999542236328
1638389121.4455652,1638389121439278574,-0.3076539933681488,-0.0897819995880127,9.977798461914062,-0.02797899954020977,0.017587000504136086,0.003197999903932214,4.800000190734863,7.800000190734863,82.79999542236328
1638389121.466037,1638389121459621829,-0.3088510036468506,-0.0730229988694191,10.016105651855469,-0.02851100079715252,0.01785299926996231,0.003197999903932214,4.800000190734863,7.800000190734863,82.79999542236328
1638389121.4852173,1638389121478953288,-0.3016679883003235,-0.09816200286149979,9.9694185256958,-0.02851100079715252,0.018118999898433685,0.003197999903932214,4.800000190734863,7.800000190734863,82.79999542236328
1638389121.5045342,1638389121498202706,-0.3016679883003235,-0.08020500093698502,9.981389999389648,-0.028245000168681145,0.017319999635219574,0.002930999966338277,5.400000095367432,7.800000190734863,82.79999542236328
1638389121.5444722,1638389121538305912,-0.28730300068855286,-0.06943199783563614,9.99216365814209,-0.02797899954020977,0.017587000504136086,0.003464000066742301,5.400000095367432,7.800000190734863,82.79999542236328
1638389121.5642252,1638389121557704046,-0.29568299651145935,-0.10534399747848511,9.984981536865234,-0.028245000168681145,0.015987999737262726,0.0037299999967217445,5.400000095367432,7.800000190734863,82.79999542236328
1638389121.5837464,1638389121577710123,-0.31363898515701294,-0.11013299971818924,9.95505428314209,-0.02797899954020977,0.018118999898433685,0.0037299999967217445,5.400000095367432,7.800000190734863,82.79999542236328
1638389121.6030364,1638389121596991263,-0.3064570128917694,-0.10534399747848511,9.975404739379883,-0.028245000168681145,0.017319999635219574,0.0037299999967217445,6.0,9.0,82.79999542236328
1638389121.6424453,1638389121636335467,-0.29568299651145935,-0.10175299644470215,9.984981536865234,-0.028245000168681145,0.018386000767350197,0.0026650000363588333,6.0,9.0,82.79999542236328
1638389121.663845,1638389121657810896,-0.32800400257110596,-0.08619099855422974,9.974207878112793,-0.028245000168681145,0.01785299926996231,0.0037299999967217445,6.0,9.0,82.79999542236328
1638389121.684059,1638389121677795928,-0.31962499022483826,-0.09457100182771683,9.976601600646973,-0.027445999905467033,0.01785299926996231,0.002930999966338277,6.0,9.0,82.79999542236328
1638389121.703326,1638389121697240527,-0.324413001537323,-0.07900799810886383,9.984981536865234,-0.027712000533938408,0.017319999635219574,0.003464000066742301,6.0,8.40000057220459,83.4000015258789
1638389121.7456408,1638389121739442123,-0.3076539933681488,-0.10773900151252747,9.999346733093262,-0.02851100079715252,0.018118999898433685,0.0037299999967217445,6.0,8.40000057220459,83.4000015258789
1638389121.7643363,1638389121757998224,-0.31842800974845886,-0.07661399990320206,10.004135131835938,-0.028245000168681145,0.01785299926996231,0.002930999966338277,6.0,8.40000057220459,83.4000015258789
1638389121.7839646,1638389121777885223,-0.30286499857902527,-0.08140300214290619,9.971813201904297,-0.02797899954020977,0.017319999635219574,0.003197999903932214,6.0,8.40000057220459,83.4000015258789
1638389121.8034348,1638389121797296744,-0.31842800974845886,-0.08140300214290619,9.982586860656738,-0.02877799980342388,0.01705400086939335,0.004530000034719706,5.400000095367432,7.800000190734863,83.4000015258789
1638389121.8430269,1638389121836755650,-0.31962499022483826,-0.11492100358009338,9.967024803161621,-0.02797899954020977,0.017587000504136086,0.003464000066742301,5.400000095367432,7.800000190734863,83.4000015258789
1638389121.864647,1638389121858531065,-0.32920199632644653,-0.09337399899959564,9.95505428314209,-0.02851100079715252,0.017587000504136086,0.002930999966338277,5.400000095367432,7.800000190734863,83.4000015258789
1638389121.884621,1638389121878303882,-0.32920199632644653,-0.09816200286149979,9.983783721923828,-0.027712000533938408,0.018386000767350197,0.0037299999967217445,5.400000095367432,7.800000190734863,83.4000015258789
1638389121.9036684,1638389121897547622,-0.33758100867271423,-0.09576799720525742,9.914352416992188,-0.02797899954020977,0.018919000402092934,0.0039969999343156815,5.400000095367432,9.0,82.79999542236328
1638389121.943112,1638389121937058878,-0.31363898515701294,-0.0897819995880127,9.986178398132324,-0.02851100079715252,0.017319999635219574,0.0037299999967217445,5.400000095367432,9.0,82.79999542236328
1638389121.9646575,1638389121958632914,-0.3016679883003235,-0.09816200286149979,9.963433265686035,-0.02797899954020977,0.01705400086939335,0.0026650000363588333,5.400000095367432,9.0,82.79999542236328
1638389121.9844012,1638389121978366612,-0.3064570128917694,-0.06703700125217438,9.983783721923828,-0.02851100079715252,0.01785299926996231,0.0037299999967217445,5.400000095367432,9.0,82.79999542236328
1638389122.0037386,1638389121997692862,-0.2980769872665405,-0.11970999836921692,10.017303466796875,-0.028245000168681145,0.018651999533176422,0.003197999903932214,5.099999904632568,7.5,82.5
1638389122.0433285,1638389122037000632,-0.3016679883003235,-0.08379700034856796,9.98976993560791,-0.027712000533938408,0.01785299926996231,0.0037299999967217445,5.099999904632568,7.5,82.5
1638389122.0651114,1638389122059066383,-0.28730300068855286,-0.0897819995880127,9.981389999389648,-0.027712000533938408,0.017319999635219574,0.003464000066742301,5.099999904632568,7.5,82.5
1638389122.0844343,1638389122078431689,-0.31124499440193176,-0.08858499675989151,9.982586860656738,-0.028245000168681145,0.018386000767350197,0.003464000066742301,5.099999904632568,7.5,82.5
1638389122.1040876,1638389122097922949,-0.34237000346183777,-0.07661399990320206,9.963433265686035,-0.027712000533938408,0.018651999533176422,0.003197999903932214,5.400000095367432,9.600000381469727,82.19999694824219
1638389122.1303332,1638389122124286116,-0.32800400257110596,-0.07781100273132324,10.007725715637207,-0.02797899954020977,0.017319999635219574,0.003464000066742301,5.400000095367432,9.600000381469727,82.19999694824219
1638389122.145121,1638389122139123716,-0.32800400257110596,-0.06823399662971497,10.012514114379883,-0.028245000168681145,0.017587000504136086,0.0037299999967217445,5.400000095367432,9.600000381469727,82.19999694824219
1638389122.164968,1638389122158963613,-0.33758100867271423,-0.10055600106716156,10.013711929321289,-0.027712000533938408,0.017319999635219574,0.0039969999343156815,5.400000095367432,9.600000381469727,82.19999694824219
1638389122.1847227,1638389122178486023,-0.35194599628448486,-0.08738800138235092,10.013711929321289,-0.02851100079715252,0.018118999898433685,0.002930999966338277,5.400000095367432,9.600000381469727,82.19999694824219
1638389122.2039497,1638389122197920400,-0.30406200885772705,-0.0646430030465126,9.980193138122559,-0.02851100079715252,0.017587000504136086,0.0037299999967217445,6.900000095367432,8.699999809265137,82.5
1638389122.230281,1638389122224189806,-0.31004801392555237,-0.06823399662971497,10.011317253112793,-0.027712000533938408,0.017587000504136086,0.0039969999343156815,6.900000095367432,8.699999809265137,82.5
1638389122.245521,1638389122239207220,-0.31124499440193176,-0.0897819995880127,9.944279670715332,-0.02797899954020977,0.017587000504136086,0.002930999966338277,6.900000095367432,8.699999809265137,82.5
1638389122.2652707,1638389122259104937,-0.3268069922924042,-0.07900799810886383,9.963433265686035,-0.028245000168681145,0.016787000000476837,0.003197999903932214,6.900000095367432,8.699999809265137,82.5
1638389122.2845955,1638389122278536346,-0.32920199632644653,-0.08738800138235092,9.943082809448242,-0.027712000533938408,0.01785299926996231,0.003464000066742301,6.900000095367432,8.699999809265137,82.5
1638389122.3045208,1638389122297971713,-0.31363898515701294,-0.10414700210094452,9.940689086914062,-0.02797899954020977,0.016520999372005463,0.003464000066742301,6.0,9.600000381469727,82.79999542236328
1638389122.3302634,1638389122324165797,-0.3268069922924042,-0.09217599779367447,9.993361473083496,-0.028245000168681145,0.01785299926996231,0.003197999903932214,6.0,9.600000381469727,82.79999542236328
1638389122.3465357,1638389122339232279,-0.32082200050354004,-0.08858499675989151,9.977798461914062,-0.02851100079715252,0.018919000402092934,0.003197999903932214,6.0,9.600000381469727,82.79999542236328
1638389122.365403,1638389122359063999,-0.3315959870815277,-0.08379700034856796,10.012514114379883,-0.02797899954020977,0.018118999898433685,0.003464000066742301,6.0,9.600000381469727,82.79999542236328
1638389122.3844864,1638389122378470612,-0.3220190107822418,-0.09457100182771683,10.002937316894531,-0.028245000168681145,0.01785299926996231,0.0037299999967217445,6.0,9.600000381469727,82.79999542236328
1638389122.4043813,1638389122397999845,-0.2825149893760681,-0.0897819995880127,10.007725715637207,-0.02877799980342388,0.018118999898433685,0.0039969999343156815,5.699999809265137,8.09999942779541,83.0999984741211
1638389122.4303827,1638389122424264303,-0.2992739975452423,-0.08259999752044678,10.031667709350586,-0.02877799980342388,0.018651999533176422,0.0039969999343156815,5.699999809265137,8.09999942779541,83.0999984741211
1638389122.4453397,1638389122439281560,-0.32800400257110596,-0.0969650000333786,9.973010063171387,-0.02797899954020977,0.017319999635219574,0.002930999966338277,5.699999809265137,8.09999942779541,83.0999984741211
1638389122.465236,1638389122459152399,-0.31962499022483826,-0.09935899823904037,9.974207878112793,-0.028245000168681145,0.017319999635219574,0.0037299999967217445,5.699999809265137,8.09999942779541,83.0999984741211
1638389122.484612,1638389122478511090,-0.3172309994697571,-0.09576799720525742,9.981389999389648,-0.02877799980342388,0.018386000767350197,0.0037299999967217445,5.699999809265137,8.09999942779541,83.0999984741211
1638389122.5255468,1638389122519416404,-0.29568299651145935,-0.0969650000333786,9.963433265686035,-0.02851100079715252,0.018118999898433685,0.0037299999967217445,6.599999904632568,9.600000381469727,81.0
1638389122.5301614,1638389122524123195,-0.3172309994697571,-0.055066000670194626,9.990966796875,-0.02851100079715252,0.017319999635219574,0.003464000066742301,6.599999904632568,9.600000381469727,81.0
1638389122.5452175,1638389122539174832,-0.33758100867271423,-0.07422000169754028,9.973010063171387,-0.028245000168681145,0.01785299926996231,0.002930999966338277,6.599999904632568,9.600000381469727,81.0
1638389122.5651424,1638389122559007385,-0.32800400257110596,-0.05985499918460846,9.940689086914062,-0.02797899954020977,0.018118999898433685,0.003464000066742301,6.599999904632568,9.600000381469727,81.0
1638389122.58456,1638389122578449367,-0.3088510036468506,-0.08020500093698502,9.981389999389648,-0.02797899954020977,0.018118999898433685,0.0037299999967217445,6.599999904632568,9.600000381469727,81.0
1638389122.6251748,1638389122618992865,-0.28850001096725464,-0.07661399990320206,9.962236404418945,-0.02797899954020977,0.018118999898433685,0.0037299999967217445,4.199999809265137,8.40000057220459,84.0
1638389122.6302066,1638389122623766644,-0.3076539933681488,-0.10773900151252747,10.006528854370117,-0.027712000533938408,0.018386000767350197,0.002930999966338277,4.199999809265137,8.40000057220459,84.0
1638389122.6457589,1638389122639338919,-0.29448598623275757,-0.07661399990320206,10.02328872680664,-0.02851100079715252,0.018386000767350197,0.0026650000363588333,4.199999809265137,8.40000057220459,84.0
1638389122.6657546,1638389122659714405,-0.31004801392555237,-0.09217599779367447,9.988572120666504,-0.02851100079715252,0.017319999635219574,0.002930999966338277,4.199999809265137,8.40000057220459,84.0
1638389122.6850028,1638389122678709613,-0.3303990066051483,-0.07900799810886383,9.970616340637207,-0.029044000431895256,0.018651999533176422,0.003197999903932214,4.199999809265137,8.40000057220459,84.0
1638389122.739741,1638389122733602784,-0.2980769872665405,-0.06823399662971497,9.994558334350586,-0.027712000533938408,0.017587000504136086,0.003197999903932214,6.300000190734863,8.699999809265137,81.9000015258789
1638389122.743702,1638389122737743983,-0.3232159912586212,-0.07781100273132324,9.987375259399414,-0.02851100079715252,0.018651999533176422,0.003197999903932214,6.300000190734863,8.699999809265137,81.9000015258789
1638389122.7478518,1638389122741686511,-0.3004710078239441,-0.11013299971818924,9.98976993560791,-0.02851100079715252,0.017587000504136086,0.0023980000987648964,6.300000190734863,8.699999809265137,81.9000015258789
1638389122.7657607,1638389122759622002,-0.3160330057144165,-0.08259999752044678,10.011317253112793,-0.028245000168681145,0.01705400086939335,0.003464000066742301,6.300000190734863,8.699999809265137,81.9000015258789
1638389122.7847424,1638389122778723264,-0.29448598623275757,-0.08020500093698502,9.947871208190918,-0.02877799980342388,0.018386000767350197,0.0039969999343156815,6.300000190734863,8.699999809265137,81.9000015258789
1638389122.8256893,1638389122819744217,-0.3064570128917694,-0.07661399990320206,9.976601600646973,-0.02851100079715252,0.01785299926996231,0.002930999966338277,5.699999809265137,8.699999809265137,81.9000015258789
1638389122.8303707,1638389122824186496,-0.3627200126647949,-0.08140300214290619,9.998148918151855,-0.028245000168681145,0.01785299926996231,0.003197999903932214,5.699999809265137,8.699999809265137,81.9000015258789
1638389122.845384,1638389122839117077,-0.31244200468063354,-0.07062900066375732,9.993361473083496,-0.028245000168681145,0.01785299926996231,0.003464000066742301,5.699999809265137,8.699999809265137,81.9000015258789
1638389122.865263,1638389122859244771,-0.3052600026130676,-0.08858499675989151,9.995755195617676,-0.027712000533938408,0.018118999898433685,0.003197999903932214,5.699999809265137,8.699999809265137,81.9000015258789
1638389122.8870742,1638389122880891093,-0.32920199632644653,-0.08499400317668915,9.959842681884766,-0.02797899954020977,0.018118999898433685,0.0023980000987648964,5.699999809265137,8.699999809265137,81.9000015258789
1638389122.9068182,1638389122900340942,-0.324413001537323,-0.08020500093698502,10.002937316894531,-0.028245000168681145,0.018118999898433685,0.003197999903932214,6.900000095367432,9.300000190734863,83.0999984741211
1638389122.9505155,1638389122944481924,-0.32082200050354004,-0.08619099855422974,9.968221664428711,-0.02851100079715252,0.01918499916791916,0.0039969999343156815,6.900000095367432,9.300000190734863,83.0999984741211
1638389122.9664228,1638389122960451906,-0.31962499022483826,-0.0969650000333786,9.968221664428711,-0.028245000168681145,0.017319999635219574,0.003464000066742301,6.900000095367432,9.300000190734863,83.0999984741211
1638389122.984796,1638389122978853705,-0.3172309994697571,-0.08858499675989151,9.95625114440918,-0.027712000533938408,0.018386000767350197,0.0026650000363588333,6.900000095367432,9.300000190734863,83.0999984741211
1638389123.0397058,1638389123033662574,-0.3148359954357147,-0.08259999752044678,10.014908790588379,-0.028245000168681145,0.017319999635219574,0.0037299999967217445,5.699999809265137,9.300000190734863,82.5
1638389123.0439014,1638389123037754702,-0.3303990066051483,-0.0730229988694191,9.994558334350586,-0.027712000533938408,0.01705400086939335,0.003197999903932214,5.699999809265137,9.300000190734863,82.5
1638389123.0475705,1638389123041570441,-0.3160330057144165,-0.07661399990320206,9.973010063171387,-0.02797899954020977,0.017587000504136086,0.0037299999967217445,5.699999809265137,9.300000190734863,82.5
1638389123.0656946,1638389123059445549,-0.3220190107822418,-0.0646430030465126,9.98976993560791,-0.028245000168681145,0.017587000504136086,0.003197999903932214,5.699999809265137,9.300000190734863,82.5
1638389123.087035,1638389123080883708,-0.31124499440193176,-0.0969650000333786,9.982586860656738,-0.02877799980342388,0.017587000504136086,0.003197999903932214,5.699999809265137,9.300000190734863,82.5
1638389123.1395824,1638389123133503591,-0.29568299651145935,-0.08140300214290619,9.993361473083496,-0.02877799980342388,0.018386000767350197,0.0037299999967217445,7.199999809265137,9.0,82.79999542236328
1638389123.1445086,1638389123137702452,-0.34476399421691895,-0.0897819995880127,10.053215980529785,-0.02851100079715252,0.018118999898433685,0.0037299999967217445,7.199999809265137,9.0,82.79999542236328
1638389123.1475744,1638389123141619818,-0.3220190107822418,-0.11492100358009338,10.013711929321289,-0.028245000168681145,0.018118999898433685,0.003197999903932214,7.199999809265137,9.0,82.79999542236328
1638389123.1657405,1638389123159663280,-0.3016679883003235,-0.09217599779367447,9.943082809448242,-0.02851100079715252,0.018118999898433685,0.003197999903932214,7.199999809265137,9.0,82.79999542236328
1638389123.1869514,1638389123180990696,-0.30406200885772705,-0.06703700125217438,9.978996276855469,-0.02877799980342388,0.01785299926996231,0.003464000066742301,7.199999809265137,9.0,82.79999542236328
1638389123.2265916,1638389123220499403,-0.29568299651145935,-0.09457100182771683,9.982586860656738,-0.027712000533938408,0.01785299926996231,0.003197999903932214,6.900000095367432,8.699999809265137,84.30000305175781
1638389123.2325578,1638389123224703576,-0.29688000679016113,-0.0897819995880127,9.999346733093262,-0.027712000533938408,0.01705400086939335,0.0037299999967217445,6.900000095367432,8.699999809265137,84.30000305175781
1638389123.2456002,1638389123239629616,-0.3148359954357147,-0.057461000978946686,9.965827941894531,-0.028245000168681145,0.01785299926996231,0.003197999903932214,6.900000095367432,8.699999809265137,84.30000305175781
1638389123.2658315,1638389123259847413,-0.3004710078239441,-0.09337399899959564,9.973010063171387,-0.028245000168681145,0.018651999533176422,0.002930999966338277,6.900000095367432,8.699999809265137,84.30000305175781
1638389123.2872717,1638389123281241921,-0.29688000679016113,-0.09816200286149979,9.999346733093262,-0.02851100079715252,0.01785299926996231,0.003464000066742301,6.900000095367432,8.699999809265137,84.30000305175781
1638389123.3400698,1638389123333827946,-0.32082200050354004,-0.06224900111556053,9.998148918151855,-0.02877799980342388,0.01705400086939335,0.0037299999967217445,4.199999809265137,10.200000762939453,82.19999694824219
1638389123.3442109,1638389123337819176,-0.31842800974845886,-0.0897819995880127,10.018500328063965,-0.027712000533938408,0.018118999898433685,0.003197999903932214,4.199999809265137,10.200000762939453,82.19999694824219
1638389123.3475783,1638389123341605953,-0.3148359954357147,-0.09576799720525742,9.983783721923828,-0.02797899954020977,0.017587000504136086,0.003197999903932214,4.199999809265137,10.200000762939453,82.19999694824219
1638389123.3678277,1638389123361748116,-0.3076539933681488,-0.07781100273132324,9.971813201904297,-0.02851100079715252,0.01705400086939335,0.0026650000363588333,4.199999809265137,10.200000762939453,82.19999694824219
1638389123.3866568,1638389123380724143,-0.34476399421691895,-0.07541699707508087,9.995755195617676,-0.027445999905467033,0.017587000504136086,0.003464000066742301,4.199999809265137,10.200000762939453,82.19999694824219
1638389123.439449,1638389123433318450,-0.3220190107822418,-0.08379700034856796,9.980193138122559,-0.027712000533938408,0.01705400086939335,0.0039969999343156815,5.699999809265137,8.09999942779541,81.9000015258789
1638389123.4433615,1638389123437445791,-0.3064570128917694,-0.09576799720525742,10.02687931060791,-0.02797899954020977,0.01785299926996231,0.002930999966338277,5.699999809265137,8.09999942779541,81.9000015258789
1638389123.4477222,1638389123441568548,-0.3004710078239441,-0.08379700034856796,9.947871208190918,-0.027712000533938408,0.018118999898433685,0.0039969999343156815,5.699999809265137,8.09999942779541,81.9000015258789
1638389123.4679897,1638389123461660496,-0.324413001537323,-0.0646430030465126,9.950265884399414,-0.02797899954020977,0.01785299926996231,0.002930999966338277,5.699999809265137,8.09999942779541,81.9000015258789
1638389123.486743,1638389123480732785,-0.31962499022483826,-0.1137240007519722,10.008923530578613,-0.027445999905467033,0.017319999635219574,0.002930999966338277,5.699999809265137,8.09999942779541,81.9000015258789
1638389123.506101,1638389123500118186,-0.32920199632644653,-0.07541699707508087,9.998148918151855,-0.028245000168681145,0.018118999898433685,0.003464000066742301,6.0,9.600000381469727,83.4000015258789
1638389123.5455363,1638389123539472343,-0.3172309994697571,-0.08020500093698502,10.02328872680664,-0.02931099943816662,0.017587000504136086,0.003464000066742301,6.0,9.600000381469727,83.4000015258789
1638389123.5496967,1638389123543458572,-0.3172309994697571,-0.08020500093698502,9.983783721923828,-0.028245000168681145,0.018118999898433685,0.0037299999967217445,6.0,9.600000381469727,83.4000015258789
1638389123.567072,1638389123561140635,-0.3315959870815277,-0.08738800138235092,10.011317253112793,-0.02851100079715252,0.01705400086939335,0.003197999903932214,6.0,9.600000381469727,83.4000015258789
1638389123.5866075,1638389123580423888,-0.32082200050354004,-0.10055600106716156,9.978996276855469,-0.02851100079715252,0.017587000504136086,0.003197999903932214,6.0,9.600000381469727,83.4000015258789
1638389123.6414988,1638389123635238838,-0.31124499440193176,-0.09935899823904037,9.963433265686035,-0.027712000533938408,0.018386000767350197,0.003197999903932214,6.0,7.800000190734863,84.0
1638389123.64815,1638389123639271063,-0.2908940017223358,-0.09097900241613388,10.02328872680664,-0.028245000168681145,0.018386000767350197,0.004263000097125769,6.0,7.800000190734863,84.0
1638389123.6508276,1638389123642813226,-0.31244200468063354,-0.11970999836921692,9.973010063171387,-0.028245000168681145,0.017587000504136086,0.0039969999343156815,6.0,7.800000190734863,84.0
1638389123.666721,1638389123660727089,-0.30406200885772705,-0.08140300214290619,9.961039543151855,-0.028245000168681145,0.01785299926996231,0.003464000066742301,6.0,7.800000190734863,84.0
1638389123.68823,1638389123681990694,-0.2992739975452423,-0.0969650000333786,10.004135131835938,-0.02851100079715252,0.018651999533176422,0.003464000066742301,6.0,7.800000190734863,84.0
1638389123.727848,1638389123721597747,-0.28969699144363403,-0.08738800138235092,9.982586860656738,-0.028245000168681145,0.018118999898433685,0.0039969999343156815,6.300000190734863,9.300000190734863,83.69999694824219
1638389123.731548,1638389123725653829,-0.3220190107822418,-0.10294999927282333,10.010120391845703,-0.028245000168681145,0.017587000504136086,0.002930999966338277,6.300000190734863,9.300000190734863,83.69999694824219
1638389123.746609,1638389123740707437,-0.31962499022483826,-0.08499400317668915,10.018500328063965,-0.028245000168681145,0.017319999635219574,0.003464000066742301,6.300000190734863,9.300000190734863,83.69999694824219
1638389123.768878,1638389123762493243,-0.30406200885772705,-0.08738800138235092,9.99216365814209,-0.02797899954020977,0.018386000767350197,0.003464000066742301,6.300000190734863,9.300000190734863,83.69999694824219
1638389123.7880514,1638389123782121279,-0.3172309994697571,-0.09935899823904037,9.971813201904297,-0.02797899954020977,0.018386000767350197,0.003464000066742301,6.300000190734863,9.300000190734863,83.69999694824219
1638389123.8406885,1638389123834696574,-0.31962499022483826,-0.09816200286149979,9.980193138122559,-0.027712000533938408,0.018386000767350197,0.002930999966338277,6.599999904632568,8.40000057220459,81.60000610351562
1638389123.8463635,1638389123840171219,-0.3160330057144165,-0.08020500093698502,10.006528854370117,-0.028245000168681145,0.018386000767350197,0.003464000066742301,6.599999904632568,8.40000057220459,81.60000610351562
1638389123.8488495,1638389123842667626,-0.3016679883003235,-0.09935899823904037,9.993361473083496,-0.028245000168681145,0.018386000767350197,0.003464000066742301,6.599999904632568,8.40000057220459,81.60000610351562
1638389123.868963,1638389123862754678,-0.33518698811531067,-0.10414700210094452,9.999346733093262,-0.028245000168681145,0.018386000767350197,0.0037299999967217445,6.599999904632568,8.40000057220459,81.60000610351562
1638389123.8877366,1638389123881638193,-0.3148359954357147,-0.0969650000333786,10.005331993103027,-0.028245000168681145,0.017587000504136086,0.0037299999967217445,6.599999904632568,8.40000057220459,81.60000610351562
1638389123.940668,1638389123934687662,-0.2908940017223358,-0.0730229988694191,9.95744800567627,-0.027445999905467033,0.017587000504136086,0.0039969999343156815,6.300000190734863,9.899999618530273,82.5
1638389123.9447236,1638389123938754370,-0.2837119996547699,-0.08619099855422974,10.010120391845703,-0.027712000533938408,0.018118999898433685,0.003464000066742301,6.300000190734863,9.899999618530273,82.5
1638389123.9486704,1638389123942797690,-0.3088510036468506,-0.06943199783563614,9.963433265686035,-0.027712000533938408,0.01918499916791916,0.0037299999967217445,6.300000190734863,9.899999618530273,82.5
1638389123.9703143,1638389123964272364,-0.31962499022483826,-0.09457100182771683,10.008923530578613,-0.028245000168681145,0.016787000000476837,0.003464000066742301,6.300000190734863,9.899999618530273,82.5
1638389123.9879537,1638389123982002713,-0.3172309994697571,-0.11013299971818924,9.994558334350586,-0.02797899954020977,0.018118999898433685,0.003197999903932214,6.300000190734863,9.899999618530273,82.5
1638389124.0291767,1638389124023281993,-0.3064570128917694,-0.08259999752044678,9.939491271972656,-0.028245000168681145,0.01705400086939335,0.0037299999967217445,4.800000190734863,10.200000762939453,82.79999542236328
1638389124.03363,1638389124027421677,-0.29448598623275757,-0.07661399990320206,9.983783721923828,-0.02797899954020977,0.018118999898433685,0.0037299999967217445,4.800000190734863,10.200000762939453,82.79999542236328
